timestamp,datetime,ax,ay,az,gx,gy,gz,label,frame_id
1770512523.4268925,09:02:03.426,-9.197,0.615,0.421,0.1462,0.3218,-0.1949,NONE,1
1770512523.4283378,09:02:03.428,-9.317,0.438,0.423,0.1292,0.3104,-0.1547,NONE,2
1770512523.4290738,09:02:03.429,-9.343,0.383,0.383,0.1074,0.2341,-0.0983,NONE,3
1770512523.4297106,09:02:03.429,-9.384,0.38,0.316,0.0919,0.1962,-0.0322,NONE,4
1770512523.4303668,09:02:03.430,-9.312,0.378,0.275,0.095,0.1451,0.0413,NONE,5
1770512523.431094,09:02:03.431,-9.243,0.39,0.225,0.0973,0.1247,0.0993,NONE,6
1770512523.4324422,09:02:03.432,-9.353,0.402,0.325,0.0842,0.1042,0.1207,NONE,7
1770512523.4330823,09:02:03.433,-9.434,0.469,0.29,0.0691,0.0978,0.1106,NONE,8
1770512523.4337404,09:02:03.433,-9.446,0.443,0.244,0.0606,0.1219,0.0945,NONE,9
1770512523.4345746,09:02:03.434,-9.448,0.483,0.244,0.055,0.1487,0.0524,NONE,10
1770512523.4354553,09:02:03.435,-9.518,0.507,0.175,0.0484,0.1705,0.0125,NONE,11
1770512523.4368618,09:02:03.436,-9.467,0.498,0.089,0.0522,0.1907,-0.0033,NONE,12
1770512523.438146,09:02:03.438,-9.477,0.407,0.048,0.0516,0.2092,-0.0258,NONE,13
1770512523.4407218,09:02:03.440,-9.7,0.534,0.06,0.0457,0.2224,-0.056,NONE,14
1770512523.4424143,09:02:03.442,-9.63,0.627,0.158,0.0285,0.2349,-0.0689,NONE,15
1770512523.443233,09:02:03.443,-9.92,0.517,0.077,-0.0111,0.2298,-0.0775,NONE,16
1770512523.4479835,09:02:03.447,-9.855,0.481,-0.175,-0.0111,0.232,-0.0675,NONE,17
1770512523.454879,09:02:03.454,-9.939,0.156,-0.282,-0.016,0.2345,-0.0596,NONE,18
1770512523.4619017,09:02:03.461,-9.939,0.036,-0.426,0.0076,0.2144,-0.0485,NONE,19
1770512523.4684474,09:02:03.468,-9.944,0.065,-0.502,0.0338,0.1819,0.0141,NONE,20
1770512523.4756823,09:02:03.475,-9.86,0.005,-0.364,0.0601,0.1556,0.0099,NONE,21
1770512523.4827137,09:02:03.482,-10.097,0.057,-0.412,0.0597,0.1412,0.0112,NONE,22
1770512523.4898293,09:02:03.489,-10.123,0.031,-0.49,0.0774,0.1299,0.0113,NONE,23
1770512523.4982898,09:02:03.498,-10.168,0.117,-0.414,0.0913,0.1112,-0.0148,NONE,24
1770512523.50587,09:02:03.505,-9.915,0.227,-0.364,0.1013,0.0979,-0.0428,NONE,25
1770512523.512605,09:02:03.512,-9.69,0.256,-0.407,0.0941,0.1107,-0.0682,NONE,26
1770512523.5195816,09:02:03.519,-9.594,0.297,-0.328,0.0935,0.1256,-0.0827,NONE,27
1770512523.526855,09:02:03.526,-9.496,0.378,-0.297,0.0909,0.1274,-0.0891,NONE,28
1770512523.533802,09:02:03.533,-9.35,0.44,-0.282,0.0878,0.1344,-0.0823,NONE,29
1770512523.540925,09:02:03.540,-9.173,0.502,-0.34,0.0902,0.1472,-0.0626,NONE,30
1770512523.547806,09:02:03.547,-9.068,0.517,-0.428,0.0907,0.1539,-0.0175,NONE,31
1770512523.5547981,09:02:03.554,-9.199,0.512,-0.423,0.1009,0.1479,0.037,NONE,32
1770512523.5616212,09:02:03.561,-9.381,0.44,-0.309,0.0991,0.1276,0.0913,NONE,33
1770512523.5686913,09:02:03.568,-9.642,0.402,-0.443,0.1033,0.1095,0.1025,NONE,34
1770512523.5755746,09:02:03.575,-9.637,0.438,-0.419,0.1106,0.1128,0.0929,NONE,35
1770512523.5829947,09:02:03.582,-9.707,0.546,-0.232,0.0997,0.1152,0.0561,NONE,36
1770512523.5896869,09:02:03.589,-9.728,0.613,-0.213,0.0886,0.1335,0.0216,NONE,37
1770512523.5965447,09:02:03.596,-9.802,0.529,-0.311,0.0831,0.1518,0.0025,NONE,38
1770512523.6037452,09:02:03.603,-9.587,0.581,-0.256,0.0662,0.1525,-0.0374,NONE,39
1770512523.6107256,09:02:03.610,-9.489,0.56,-0.383,0.0687,0.1663,-0.0433,NONE,40
1770512523.618212,09:02:03.618,-9.446,0.653,-0.16,0.0438,0.1657,-0.059,NONE,41
1770512523.625921,09:02:03.625,-9.372,0.593,-0.273,0.0248,0.1498,-0.0657,NONE,42
1770512523.6326835,09:02:03.632,-9.381,0.519,-0.313,0.018,0.1382,-0.0354,NONE,43
1770512523.6397583,09:02:03.639,-9.288,0.586,-0.345,0.0151,0.1107,-0.0063,NONE,44
1770512523.6468272,09:02:03.646,-9.429,0.569,-0.361,0.002,0.0885,0.0163,NONE,45
1770512523.6536121,09:02:03.653,-9.47,0.479,-0.555,0.0039,0.0911,0.0207,NONE,46
1770512523.6605682,09:02:03.660,-9.534,0.438,-0.462,0.0049,0.1013,0.0047,NONE,47
1770512523.6677232,09:02:03.667,-9.568,0.383,-0.49,0.0141,0.1031,-0.0156,NONE,48
1770512523.6746516,09:02:03.674,-9.585,0.423,-0.285,0.008,0.0885,-0.0272,NONE,49
1770512523.682666,09:02:03.682,-9.563,0.412,-0.038,-0.0099,0.0677,-0.0358,NONE,50
1770512523.6898324,09:02:03.689,-9.542,0.433,-0.211,-0.03,0.0417,-0.0429,NONE,51
1770512523.696846,09:02:03.696,-9.522,0.404,-0.268,-0.0382,0.0241,-0.053,NONE,52
1770512523.7037334,09:02:03.703,-9.245,0.366,-0.529,-0.0364,0.0474,-0.0679,NONE,53
1770512523.7107875,09:02:03.710,-9.099,0.27,-0.651,-0.0401,0.0714,-0.0754,NONE,54
1770512523.717675,09:02:03.717,-9.156,0.177,-0.615,-0.0296,0.0915,-0.0809,NONE,55
1770512523.724755,09:02:03.724,-9.226,0.189,-0.816,-0.0025,0.0853,-0.0565,NONE,56
1770512523.7316387,09:02:03.731,-9.417,0.01,-0.842,0.027,0.0858,-0.032,NONE,57
1770512523.7387054,09:02:03.738,-9.522,0.132,-0.644,0.0461,0.0634,-0.031,NONE,58
1770512523.7457888,09:02:03.745,-9.637,0.316,-0.409,0.0358,0.0528,-0.0461,NONE,59
1770512523.7527645,09:02:03.752,-9.582,0.273,-0.34,0.0195,0.056,-0.0521,NONE,60
1770512523.7596862,09:02:03.759,-9.331,0.309,-0.479,0.0173,0.0726,-0.0489,NONE,61
1770512523.7667637,09:02:03.766,-9.302,0.354,-0.471,-0.0017,0.0819,-0.0392,NONE,62
1770512523.7740083,09:02:03.774,-9.522,0.211,-0.402,-0.0096,0.0405,-0.0128,NONE,63
1770512523.7807887,09:02:03.780,-9.604,0.208,-0.431,-0.0133,0.0055,-0.0016,NONE,64
1770512523.787886,09:02:03.787,-9.345,0.268,-0.5,-0.0163,0.0107,-0.0084,NONE,65
1770512523.7947655,09:02:03.794,-8.915,0.227,-0.613,-0.018,0.0496,0.0157,NONE,66
1770512523.8016274,09:02:03.801,-8.967,0.258,-0.73,-0.0173,0.081,0.0338,NONE,67
1770512523.8086863,09:02:03.808,-9.305,0.179,-0.641,-0.0037,0.1034,0.0344,NONE,68
1770512523.8158908,09:02:03.815,-9.726,0.124,-0.553,0.0011,0.0841,0.0067,NONE,69
1770512523.8229802,09:02:03.822,-9.778,0.244,-0.467,0.0132,0.0893,-0.0212,NONE,70
1770512523.8296995,09:02:03.829,-9.733,0.285,-0.433,0.012,0.0843,-0.0373,NONE,71
1770512523.8367355,09:02:03.836,-9.613,0.28,-0.495,0.0111,0.0983,-0.0742,NONE,72
1770512523.8436534,09:02:03.843,-9.298,0.227,-0.689,0.0389,0.1294,-0.0733,NONE,73
1770512523.8506641,09:02:03.850,-9.326,0.151,-0.687,0.061,0.133,-0.0658,NONE,74
1770512523.857688,09:02:03.857,-9.288,0.282,-0.502,0.0721,0.1322,-0.0593,NONE,75
1770512523.8646235,09:02:03.864,-9.336,0.49,-0.232,0.0726,0.1563,-0.0648,NONE,76
1770512523.871758,09:02:03.871,-9.568,0.467,-0.16,0.0593,0.1628,-0.0767,NONE,77
1770512523.8786492,09:02:03.878,-9.566,0.498,-0.156,0.0506,0.1483,-0.0998,NONE,78
1770512523.886789,09:02:03.886,-9.295,0.598,-0.191,0.0341,0.1673,-0.1203,NONE,79
1770512523.8937142,09:02:03.893,-9.321,0.49,-0.292,0.0151,0.1865,-0.129,NONE,80
1770512523.900625,09:02:03.900,-9.441,0.368,-0.311,0.0015,0.1788,-0.1199,NONE,81
1770512523.9077604,09:02:03.907,-9.374,0.297,-0.44,-0.0032,0.1672,-0.0846,NONE,82
1770512523.9146876,09:02:03.914,-9.262,0.275,-0.543,-0.0068,0.134,-0.0554,NONE,83
1770512523.9217775,09:02:03.921,-9.099,0.194,-0.813,0.0044,0.1327,-0.0144,NONE,84
1770512523.9285154,09:02:03.928,-9.178,0.11,-0.768,0.0265,0.1139,0.0314,NONE,85
1770512523.9355767,09:02:03.935,-9.058,0.316,-0.658,0.0422,0.1202,0.0695,NONE,86
1770512523.9424489,09:02:03.942,-9.192,0.49,-0.301,0.0289,0.1303,0.0803,NONE,87
1770512523.9503858,09:02:03.950,-9.561,0.565,-0.184,-0.0007,0.1175,0.0841,NONE,88
1770512523.9577765,09:02:03.957,-9.7,0.562,-0.124,-0.0289,0.1119,0.05,NONE,89
1770512523.9645998,09:02:03.964,-9.69,0.356,-0.227,-0.047,0.113,0.0011,NONE,90
1770512523.9718673,09:02:03.971,-9.592,0.349,-0.574,-0.0671,0.1208,-0.0017,NONE,91
1770512523.9787388,09:02:03.978,-9.467,0.285,-0.711,-0.0683,0.1379,-0.0119,NONE,92
1770512523.9858043,09:02:03.985,-9.534,0.266,-0.751,-0.071,0.1411,-0.0151,NONE,93
1770512523.9928048,09:02:03.992,-9.743,0.177,-0.766,-0.0585,0.1464,-0.0025,NONE,94
1770512523.9997194,09:02:03.999,-9.884,0.11,-0.912,-0.0544,0.1311,-0.0081,NONE,95
1770512524.006643,09:02:04.006,-9.946,0.055,-0.895,-0.0398,0.1114,-0.0112,NONE,96
1770512524.0138783,09:02:04.013,-10.023,0.079,-0.883,-0.0264,0.1045,-0.0438,NONE,97
1770512524.0209594,09:02:04.020,-9.936,0.144,-0.957,-0.0117,0.1038,-0.0496,NONE,98
1770512524.0278463,09:02:04.027,-9.726,0.184,-0.981,-0.0008,0.1079,-0.0574,NONE,99
1770512524.0346394,09:02:04.034,-9.697,0.165,-0.854,0.0179,0.1155,-0.0433,NONE,100
1770512524.0416868,09:02:04.041,-9.656,0.242,-0.701,0.0301,0.0967,-0.0321,NONE,101
1770512524.048506,09:02:04.048,-9.532,0.292,-0.541,0.0256,0.0878,-0.0141,NONE,102
1770512524.0556955,09:02:04.055,-9.537,0.376,-0.421,0.0105,0.085,-0.0104,NONE,103
1770512524.0626752,09:02:04.062,-9.52,0.373,-0.395,-0.0091,0.0918,-0.0092,NONE,104
1770512524.0696883,09:02:04.069,-9.58,0.306,-0.354,-0.0237,0.0762,-0.0084,NONE,105
1770512524.0767748,09:02:04.076,-9.503,0.292,-0.433,-0.0486,0.0609,-0.034,NONE,106
1770512524.0836375,09:02:04.083,-9.384,0.124,-0.593,-0.0541,0.0671,-0.0746,NONE,107
1770512524.0908055,09:02:04.090,-9.152,0.036,-0.878,-0.0417,0.1046,-0.081,NONE,108
1770512524.0979507,09:02:04.097,-9.054,0.033,-0.852,-0.0254,0.1354,-0.065,NONE,109
1770512524.104826,09:02:04.104,-9.228,0.112,-0.723,-0.016,0.1328,-0.0438,NONE,110
1770512524.1117685,09:02:04.111,-9.489,0.112,-0.584,-0.0107,0.115,-0.0213,NONE,111
1770512524.1187382,09:02:04.118,-9.398,0.22,-0.608,-0.0101,0.0925,0.0041,NONE,112
1770512524.1256757,09:02:04.125,-9.372,0.199,-0.586,-0.0217,0.0819,0.0266,NONE,113
1770512524.132708,09:02:04.132,-9.221,0.191,-0.62,-0.0382,0.0855,0.0509,NONE,114
1770512524.139693,09:02:04.139,-9.209,0.089,-0.713,-0.0493,0.0866,0.0628,NONE,115
1770512524.1466703,09:02:04.146,-9.396,-0.16,-0.859,-0.0398,0.0838,0.0683,NONE,116
1770512524.1542835,09:02:04.154,-9.702,-0.345,-1.017,-0.0147,0.0743,0.0665,NONE,117
1770512524.1609654,09:02:04.160,-9.814,-0.328,-0.979,0.0091,0.0653,0.0336,NONE,118
1770512524.1678565,09:02:04.167,-9.833,-0.211,-0.993,0.026,0.0709,-0.0336,NONE,119
1770512524.174825,09:02:04.174,-9.778,-0.062,-0.811,0.0437,0.0863,-0.0584,NONE,120
1770512524.1815126,09:02:04.181,-9.542,0.132,-0.746,0.0497,0.0887,-0.0695,NONE,121
1770512524.188682,09:02:04.188,-9.491,0.263,-0.608,0.0466,0.0979,-0.0729,NONE,122
1770512524.1956909,09:02:04.195,-9.508,0.352,-0.538,0.0424,0.1017,-0.0743,NONE,123
1770512524.2027888,09:02:04.202,-9.377,0.366,-0.462,0.0249,0.1126,-0.0698,NONE,124
1770512524.209707,09:02:04.209,-9.293,0.378,-0.562,-0.0031,0.1406,-0.0686,NONE,125
1770512524.2166877,09:02:04.216,-9.355,0.22,-0.546,-0.0023,0.1202,-0.0749,NONE,126
1770512524.2237613,09:02:04.223,-9.171,0.081,-0.644,-0.0272,0.1151,-0.0817,NONE,127
1770512524.230895,09:02:04.230,-9.161,0.024,-0.84,-0.0332,0.1303,-0.0597,NONE,128
1770512524.2379816,09:02:04.237,-9.286,0.06,-0.842,-0.0308,0.135,-0.048,NONE,129
1770512524.2446887,09:02:04.244,-9.403,0.069,-0.907,-0.0288,0.1039,-0.0179,NONE,130
1770512524.2515254,09:02:04.251,-9.42,0.134,-0.821,-0.0217,0.0802,0.0121,NONE,131
1770512524.258741,09:02:04.258,-9.666,0.17,-0.668,-0.0238,0.0553,0.0278,NONE,132
1770512524.2656302,09:02:04.265,-9.889,0.189,-0.742,-0.0274,0.0296,0.0177,NONE,133
1770512524.2728016,09:02:04.272,-9.975,0.201,-0.696,-0.0397,0.0068,-0.0245,NONE,134
1770512524.279637,09:02:04.279,-9.697,0.098,-0.806,-0.0393,0.0103,-0.0641,NONE,135
1770512524.2875428,09:02:04.287,-9.405,-0.005,-0.983,-0.0233,0.0366,-0.1033,NONE,136
1770512524.295089,09:02:04.295,-9.137,-0.012,-1.067,-0.0136,0.0746,-0.1346,NONE,137
1770512524.301918,09:02:04.301,-8.996,-0.431,-1.314,0.031,0.1256,-0.1636,NONE,138
1770512524.3087575,09:02:04.308,-8.759,-0.014,-0.799,-0.0188,0.1939,-0.1575,NONE,139
1770512524.3158102,09:02:04.315,-8.652,0.153,-0.689,0.0028,0.2106,-0.1723,NONE,140
1770512524.322888,09:02:04.322,-8.757,0.414,-0.586,-0.0638,0.2429,-0.1571,NONE,141
1770512524.3298306,09:02:04.329,-8.967,0.254,-0.646,-0.0556,0.2305,-0.1275,NONE,142
1770512524.3366868,09:02:04.336,-9.204,0.239,-0.873,-0.0396,0.2065,-0.0738,NONE,143
1770512524.3438013,09:02:04.343,-9.247,0.246,-0.876,-0.0156,0.2088,-0.029,NONE,144
1770512524.3510323,09:02:04.351,-9.463,0.232,-0.782,-0.0097,0.1883,-0.0019,NONE,145
1770512524.3577998,09:02:04.357,-9.491,0.287,-0.878,-0.0003,0.1809,-0.0024,NONE,146
1770512524.3646214,09:02:04.364,-9.432,0.124,-1.287,0.0151,0.2073,0.0069,NONE,147
1770512524.3716226,09:02:04.371,-9.487,-0.074,-1.304,0.0196,0.2106,0.0131,NONE,148
1770512524.3787203,09:02:04.378,-9.676,-0.294,-1.33,0.0508,0.1989,-0.0021,NONE,149
1770512524.3858685,09:02:04.385,-9.654,-0.249,-1.227,0.056,0.2117,-0.0542,NONE,150
1770512524.3928285,09:02:04.392,-9.46,-0.05,-1.201,0.0683,0.237,-0.0973,NONE,151
1770512524.3999755,09:02:04.399,-9.35,-0.053,-1.22,0.0854,0.2629,-0.1294,NONE,152
1770512524.4065838,09:02:04.406,-9.233,0.002,-1.153,0.0971,0.2856,-0.1251,NONE,153
1770512524.4137316,09:02:04.413,-9.377,0.108,-1.127,0.1182,0.2555,-0.0663,NONE,154
1770512524.420827,09:02:04.420,-9.4,0.337,-0.859,0.1211,0.2425,-0.0286,NONE,155
1770512524.4275167,09:02:04.427,-9.537,0.51,-0.603,0.0983,0.2293,-0.0011,NONE,156
1770512524.4343917,09:02:04.434,-9.841,0.945,0.127,0.0485,0.2326,0.0041,NONE,157
1770512524.44174,09:02:04.441,-10.377,0.569,-0.376,0.0085,0.1797,-0.0043,NONE,158
1770512524.4486823,09:02:04.448,-10.25,0.56,-0.354,-0.0175,0.1697,0.031,NONE,159
1770512524.4557788,09:02:04.455,-9.958,0.546,-0.541,-0.052,0.1053,0.0336,NONE,160
1770512524.4628189,09:02:04.462,-10.401,0.278,-0.931,-0.0586,0.0493,0.0397,NONE,161
1770512524.4697478,09:02:04.469,-10.281,0.146,-1.079,-0.0604,0.0306,0.0659,NONE,162
1770512524.4770882,09:02:04.477,-10.372,-0.024,-1.194,-0.0525,-0.0129,0.0549,NONE,163
1770512524.484073,09:02:04.484,-10.554,-0.402,-1.603,-0.0333,-0.0412,0.0285,NONE,164
1770512524.491133,09:02:04.491,-10.64,-0.534,-1.534,-0.0101,-0.0574,-0.0097,NONE,165
1770512524.4979906,09:02:04.497,-10.776,-0.593,-0.959,0.0005,-0.1081,-0.0685,NONE,166
1770512524.5050433,09:02:04.505,-11.31,-0.725,-1.127,0.0358,-0.21,-0.182,NONE,167
1770512524.5118458,09:02:04.511,-11.527,-0.754,-1.089,0.0421,-0.2914,-0.2914,NONE,168
1770512524.5189614,09:02:04.518,-11.343,-0.414,-1.115,0.0466,-0.3591,-0.4385,NONE,169
1770512524.5258298,09:02:04.525,-11.365,-0.409,-0.83,0.0205,-0.3821,-0.5548,NONE,170
1770512524.533297,09:02:04.533,-11.403,-0.258,-0.727,0.0212,-0.4133,-0.6554,NONE,171
1770512524.5403564,09:02:04.540,10.439,-0.239,-1.156,0.0216,-0.393,-0.7163,NONE,172
1770512524.548021,09:02:04.548,-9.455,-0.27,-1.318,0.0272,-0.302,-0.6935,NONE,173
1770512524.5542736,09:02:04.554,-9.077,-0.251,-1.232,0.0348,-0.2493,-0.6564,NONE,174
1770512524.5613256,09:02:04.561,-9.226,-0.407,-1.048,0.0488,-0.2447,-0.5943,NONE,175
1770512524.5680149,09:02:04.568,-9.228,-0.474,-0.802,0.0448,-0.3204,-0.5421,NONE,176
1770512524.5751517,09:02:04.575,-9.36,-0.457,-0.663,0.0393,-0.4141,-0.4811,NONE,177
1770512524.5819397,09:02:04.581,-9.845,-0.495,-0.392,0.0208,-0.5626,-0.381,NONE,178
1770512524.5889397,09:02:04.588,-10.078,-0.49,-0.148,0.0116,-0.7324,-0.3108,NONE,179
1770512524.5959086,09:02:04.595,-10.377,-0.514,0.141,-0.0354,-0.9761,-0.2356,NONE,180
1770512524.6028998,09:02:04.602,-10.03,-0.098,0.361,-0.0897,-1.1942,-0.2543,NONE,181
1770512524.609953,09:02:04.609,-9.499,0.62,-0.062,-0.1484,-1.2037,-0.1508,NONE,182
1770512524.6171231,09:02:04.617,-11.013,0.278,0.246,-0.1685,-1.3165,-0.1476,NONE,183
1770512524.6238177,09:02:04.623,-12.322,0.031,1.309,-0.206,-1.4653,-0.0413,NONE,184
1770512524.6309311,09:02:04.630,-12.343,-0.022,1.486,-0.3066,-1.8162,-0.0208,NONE,185
1770512524.6377091,09:02:04.637,-11.944,-0.38,0.589,-0.3905,-2.1815,0.0023,NONE,186
1770512524.6450238,09:02:04.645,-11.135,-0.507,-0.4,-0.3749,-2.3299,0.1504,NONE,187
1770512524.6519635,09:02:04.651,-11.07,-1.151,-0.749,-0.2959,-2.5395,0.2101,NONE,188
1770512524.6588562,09:02:04.658,-11.068,-1.328,-0.924,-0.2483,-2.75,0.3056,NONE,189
1770512524.6659892,09:02:04.665,-11.358,-1.481,-1.232,-0.1804,-3.0704,0.3553,NONE,190
1770512524.6730235,09:02:04.673,-11.209,-1.737,-1.189,-0.1039,-3.3123,0.3212,NONE,191
1770512524.6799362,09:02:04.679,-11.853,-1.641,-0.904,-0.0229,-3.5723,0.2246,NONE,192
1770512524.6867776,09:02:04.686,-11.386,-1.452,-0.589,0.0738,-3.7621,0.0933,NONE,193
1770512524.6936836,09:02:04.693,-12.671,-1.323,0.584,0.0257,-3.961,-0.1074,NONE,194
1770512524.7010098,09:02:04.701,-11.202,-0.321,-0.445,0.1651,-4.1334,-0.1777,NONE,195
1770512524.7080102,09:02:04.708,-14.659,-0.596,2.364,0.1352,-4.3325,-0.4495,NONE,196
1770512524.7147937,09:02:04.714,-13.511,-0.086,2.199,0.1168,-4.3657,-0.453,NONE,197
1770512524.7218077,09:02:04.721,-13.279,-0.254,2.311,0.0402,-4.3657,-0.5289,NONE,198
1770512524.728794,09:02:04.728,-13.489,-0.687,2.321,-0.0135,-4.3657,-0.5061,NONE,199
1770512524.7359653,09:02:04.735,-12.769,-1.067,1.849,0.01,-4.3657,-0.5317,NONE,200
1770512524.743054,09:02:04.743,-11.439,-2.015,0.45,0.1628,-4.3657,-0.504,NONE,201
1770512524.7497187,09:02:04.749,-9.905,-2.481,-0.981,0.4843,-4.3657,-0.4487,NONE,202
1770512524.7567446,09:02:04.756,-8.561,-2.584,-1.031,0.7674,-4.3657,-0.4511,NONE,203
1770512524.7639308,09:02:04.763,-8.467,-2.629,-0.347,1.017,-4.3657,-0.5349,NONE,204
1770512524.7707093,09:02:04.770,-8.893,-1.804,1.536,0.9434,-4.3657,-0.9058,NONE,205
1770512524.777866,09:02:04.777,-9.183,-1.385,3.321,1.0587,-4.2583,-0.9386,NONE,206
1770512524.7848651,09:02:04.784,-10.654,-1.065,3.826,1.1405,-4.3657,-1.0701,NONE,207
1770512524.7918959,09:02:04.791,-11.362,-0.845,4.905,1.1246,-4.3657,-0.9683,NONE,208
1770512524.7988496,09:02:04.798,-9.96,-0.333,4.821,1.111,-4.3657,-0.8318,NONE,209
1770512524.8057594,09:02:04.805,-8.783,-0.16,4.977,1.0539,-4.3657,-0.721,NONE,210
1770512524.8125184,09:02:04.812,-7.819,0.17,5.163,0.979,-4.3657,-0.2951,NONE,211
1770512524.8196623,09:02:04.819,-7.886,0.055,5.472,0.8398,-4.3657,-0.2293,NONE,212
1770512524.8267236,09:02:04.826,-8.321,-0.28,5.572,0.7313,-4.3657,-0.1523,NONE,213
1770512524.8337855,09:02:04.833,-9.537,-0.5,6.17,0.6211,-4.3657,-0.1102,NONE,214
1770512524.8406494,09:02:04.840,-9.393,-1.007,6.333,0.5794,-4.3657,-0.3625,NONE,215
1770512524.8477778,09:02:04.847,-7.515,-0.292,6.668,0.5239,-4.3657,-0.574,NONE,216
1770512524.8549266,09:02:04.854,-5.601,0.11,6.443,0.437,-4.3657,-0.6193,NONE,217
1770512524.8617299,09:02:04.861,-5.005,-0.342,6.285,0.4214,-4.3657,-0.6209,NONE,218
1770512524.868738,09:02:04.868,-4.237,-0.699,6.12,0.5212,-4.3657,-0.6158,NONE,219
1770512524.8758755,09:02:04.875,-1.778,-0.574,5.821,0.64,-4.3657,-0.5982,NONE,220
1770512524.8827515,09:02:04.882,-1.294,-0.632,5.295,0.7324,-4.3657,-0.4751,NONE,221
1770512524.8896768,09:02:04.889,-1.852,-1.01,6.223,0.8552,-4.3657,-0.3351,NONE,222
1770512524.8966632,09:02:04.896,-1.653,-1.127,5.907,1.013,-4.316,-0.1928,NONE,223
1770512524.903637,09:02:04.903,-1.445,-0.345,7.3,1.1207,-4.1956,-0.2094,NONE,224
1770512524.9105973,09:02:04.910,0.258,0.345,7.833,1.0674,-3.9548,-0.2523,NONE,225
1770512524.917735,09:02:04.917,1.304,1.01,8.238,0.9627,-3.5206,-0.2205,NONE,226
1770512524.9246778,09:02:04.924,1.723,1.249,8.197,0.8135,-2.918,-0.1326,NONE,227
1770512524.9317286,09:02:04.931,0.617,1.158,8.618,0.6829,-2.5097,-0.1452,NONE,228
1770512524.9385734,09:02:04.938,0.368,1.01,8.589,0.5654,-2.1909,-0.2213,NONE,229
1770512524.9454596,09:02:04.945,0.457,1.141,8.345,0.4795,-1.9814,-0.1783,NONE,230
1770512524.9524298,09:02:04.952,0.902,1.242,8.376,0.4261,-1.8153,-0.103,NONE,231
1770512524.9596076,09:02:04.959,1.495,1.572,8.446,0.3556,-1.6947,-0.0273,NONE,232
1770512524.9664984,09:02:04.966,1.68,1.517,8.613,0.3034,-1.5667,0.0649,NONE,233
1770512524.9734612,09:02:04.973,2.338,1.605,8.434,0.2674,-1.4174,0.0869,NONE,234
1770512524.980548,09:02:04.980,2.988,1.797,8.336,0.1939,-1.1664,0.1058,NONE,235
1770512524.9875321,09:02:04.987,3.515,1.969,8.305,0.1311,-0.8673,0.156,NONE,236
1770512524.994883,09:02:04.994,3.326,2.005,8.391,0.0456,-0.5781,0.1676,NONE,237
1770512525.0022922,09:02:05.002,3.783,1.931,8.19,-0.0452,-0.2495,0.1416,NONE,238
1770512525.008862,09:02:05.008,4.228,1.873,7.852,-0.1427,0.1649,0.0902,NONE,239
1770512525.015628,09:02:05.015,4.596,1.713,7.551,-0.2403,0.6246,0.004,NONE,240
1770512525.0226827,09:02:05.022,5.323,2.046,7.393,-0.382,1.1803,-0.1006,NONE,241
1770512525.0295365,09:02:05.029,4.85,1.766,7.075,-0.5072,1.7596,-0.2172,NONE,242
1770512525.0364938,09:02:05.036,3.519,1.122,6.498,-0.5713,2.1488,-0.2852,NONE,243
1770512525.0435033,09:02:05.043,1.744,0.304,6.211,-0.5141,2.3641,-0.2906,NONE,244
1770512525.050993,09:02:05.050,-0.244,-0.096,6.529,-0.3784,2.3386,-0.3793,NONE,245
1770512525.0589876,09:02:05.058,0.28,0.455,6.919,-0.2791,2.4176,-0.5906,NONE,246
1770512525.0666804,09:02:05.066,0.373,1.357,7.795,-0.2916,2.7875,-0.7945,NONE,247
1770512525.0735924,09:02:05.073,0.818,2.082,8.367,-0.4711,3.2596,-1.0179,NONE,248
1770512525.080377,09:02:05.080,0.718,2.146,8.4,-0.7095,3.8383,-1.2712,NONE,249
1770512525.0873792,09:02:05.087,0.675,2.29,8.501,-0.9807,4.3656,-1.4797,NONE,250
1770512525.0947292,09:02:05.094,-1.163,1.067,8.168,-1.1915,4.3656,-1.5457,NONE,251
1770512525.101546,09:02:05.101,-1.823,0.361,7.826,-1.2514,4.3656,-1.4885,NONE,252
1770512525.108922,09:02:05.108,-2.029,-0.371,7.218,-1.2015,4.3656,-1.2557,NONE,253
1770512525.1159017,09:02:05.115,-1.904,-0.589,6.749,-1.0445,4.2914,-0.8099,NONE,254
1770512525.1229563,09:02:05.122,-2.687,-0.995,6.836,-0.8306,3.9798,-0.2898,NONE,255
1770512525.12985,09:02:05.129,-3.405,-0.914,6.828,-0.6436,3.6936,0.0985,NONE,256
1770512525.1367228,09:02:05.136,-3.852,-0.371,7.116,-0.5497,3.5541,0.3355,NONE,257
1770512525.143619,09:02:05.143,-3.651,0.055,7.089,-0.5802,3.5723,0.3774,NONE,258
1770512525.1505198,09:02:05.150,-3.618,0.079,6.706,-0.6567,3.8044,0.3444,NONE,259
1770512525.1576502,09:02:05.157,-3.333,0.017,5.869,-0.7326,4.194,0.2427,NONE,260
1770512525.1646588,09:02:05.164,-3.84,0.005,5.484,-0.7943,4.3656,0.1288,NONE,261
1770512525.1717012,09:02:05.171,-5.058,-0.165,5.828,-0.8609,4.3656,0.0659,NONE,262
1770512525.1785023,09:02:05.178,-5.881,0.105,6.465,-0.9177,4.3656,0.0831,NONE,263
1770512525.1858792,09:02:05.185,-6.12,0.706,7.144,-0.9927,4.3656,0.2422,NONE,264
1770512525.1930463,09:02:05.193,-7.187,0.869,8.111,-1.119,4.3656,0.4061,NONE,265
1770512525.1995053,09:02:05.199,-7.541,1.031,8.333,-1.2746,4.1581,0.4876,NONE,266
1770512525.206489,09:02:05.206,-7.785,0.778,7.862,-1.4124,3.9999,0.5131,NONE,267
1770512525.213565,09:02:05.213,-8.01,0.234,7.147,-1.5099,3.8987,0.491,NONE,268
1770512525.2206879,09:02:05.220,-8.467,-0.38,6.429,-1.5793,3.808,0.3507,NONE,269
1770512525.2276886,09:02:05.227,-8.558,-1.318,5.323,-1.584,3.7281,0.1506,NONE,270
1770512525.2347977,09:02:05.234,-8.19,-2.235,3.845,-1.4685,3.627,-0.042,NONE,271
1770512525.241684,09:02:05.241,-7.726,-3.378,2.223,-1.2717,3.692,-0.1692,NONE,272
1770512525.2486527,09:02:05.248,-7.104,-3.553,1.469,-1.0457,3.8151,-0.3404,NONE,273
1770512525.2560217,09:02:05.256,-6.237,-3.421,1.129,-0.8555,3.9412,-0.4377,NONE,274
1770512525.2628946,09:02:05.262,-5.252,-2.962,0.78,-0.7,4.1617,-0.3296,NONE,275
1770512525.270002,09:02:05.270,-5.276,-2.555,0.981,-0.5454,4.2505,-0.1496,NONE,276
1770512525.2766306,09:02:05.276,-5.123,-1.931,1.443,-0.4514,4.2655,0.2589,NONE,277
1770512525.2835712,09:02:05.283,-4.814,-0.29,2.996,-0.7566,4.3656,0.4077,NONE,278
1770512525.2905285,09:02:05.290,-1.378,0.787,1.448,-0.4854,4.2923,1.0047,NONE,279
1770512525.2976673,09:02:05.297,-8.508,0.01,3.218,-0.5974,4.2847,1.5597,NONE,280
1770512525.304715,09:02:05.304,-9.525,-0.636,2.917,-0.7141,4.1218,1.6626,NONE,281
1770512525.311624,09:02:05.311,-11.092,-1.426,2.462,-0.7953,3.9766,1.6802,NONE,282
1770512525.3187835,09:02:05.318,-12.071,-2.67,1.199,-0.76,3.7401,1.5258,NONE,283
1770512525.325979,09:02:05.325,-10.97,-3.007,-0.395,-0.6891,3.7161,1.4013,NONE,284
1770512525.332772,09:02:05.332,-11.319,-3.529,-1.333,-0.5696,3.7565,1.2305,NONE,285
1770512525.3398323,09:02:05.339,-11.805,-3.823,-1.469,-0.4616,3.6517,0.9627,NONE,286
1770512525.3467798,09:02:05.346,-9.544,-3.627,-2.663,-0.1518,3.7371,0.9366,NONE,287
1770512525.3539357,09:02:05.353,-10.362,-2.828,-1.687,-0.0028,3.8263,0.7544,NONE,288
1770512525.360704,09:02:05.360,-10.757,-1.629,-0.45,0.023,3.8407,0.6205,NONE,289
1770512525.36766,09:02:05.367,-11.015,-1.251,-0.077,0.0734,3.8059,0.6158,NONE,290
1770512525.374629,09:02:05.374,-11.669,-1.354,0.309,0.127,3.5526,0.5906,NONE,291
1770512525.3820112,09:02:05.382,-11.171,-0.869,0.254,0.1484,3.3087,0.5488,NONE,292
1770512525.3887348,09:02:05.388,-10.494,0.01,0.761,0.0895,3.0944,0.4907,NONE,293
1770512525.396032,09:02:05.396,-10.755,0.12,0.794,-0.0385,2.9816,0.4812,NONE,294
1770512525.4027987,09:02:05.402,-11.614,-0.395,0.383,-0.1003,2.8507,0.3961,NONE,295
1770512525.4095814,09:02:05.409,-9.544,0.12,1.024,-0.227,2.7375,0.4481,NONE,296
1770512525.4168148,09:02:05.416,-14.164,-1.01,0.309,-0.1997,2.8221,0.1009,NONE,297
1770512525.423649,09:02:05.423,-8.728,0.251,-1.376,-0.3379,3.1725,0.1171,NONE,298
1770512525.4307306,09:02:05.430,-8.711,-0.44,-2.338,-0.3182,3.2635,0.0616,NONE,299
1770512525.438068,09:02:05.438,-8.312,-0.27,-2.287,-0.3399,3.3708,0.1697,NONE,300
1770512525.4461262,09:02:05.446,-7.821,-1.098,-3.259,-0.4634,3.0373,-0.0301,NONE,301
1770512525.4529397,09:02:05.452,-8.307,-0.28,-2.505,-0.403,3.4183,0.5942,NONE,302
1770512525.4604318,09:02:05.460,-10.19,-1.292,-2.665,-0.3749,3.0121,0.5176,NONE,303
1770512525.4671354,09:02:05.467,-10.338,-0.806,-2.701,-0.2966,2.8907,0.5363,NONE,304
1770512525.4742815,09:02:05.474,-9.25,-0.878,-3.957,-0.236,2.7772,0.3732,NONE,305
1770512525.4806774,09:02:05.480,-9.692,-1.067,-4.613,-0.214,2.8943,0.2562,NONE,306
1770512525.488253,09:02:05.488,-10.793,-1.565,-4.603,-0.1447,2.9376,-0.0842,NONE,307
1770512525.494926,09:02:05.494,-10.494,-2.0,-5.524,-0.0348,3.0024,-0.3922,NONE,308
1770512525.5018609,09:02:05.501,-10.384,-2.022,-6.051,0.089,3.169,-0.5025,NONE,309
1770512525.509017,09:02:05.509,10.24,-2.232,-5.84,0.117,3.087,-0.8456,NONE,310
1770512525.5158281,09:02:05.515,-9.054,-1.103,-5.735,0.2935,3.3676,-0.6607,NONE,311
1770512525.522701,09:02:05.522,-8.604,-1.543,-6.245,0.4466,3.3225,-0.5417,NONE,312
1770512525.5297866,09:02:05.529,-9.877,-1.17,-4.113,0.5744,3.0927,-0.4345,NONE,313
1770512525.5366206,09:02:05.536,-9.477,-0.49,-4.39,0.5301,2.8501,-0.2623,NONE,314
1770512525.543633,09:02:05.543,-9.341,-0.012,-4.244,0.4397,2.6301,-0.2018,NONE,315
1770512525.5509489,09:02:05.550,-8.953,0.385,-4.039,0.2579,2.3438,-0.2228,NONE,316
1770512525.5580924,09:02:05.558,-10.568,0.318,-2.689,0.1107,2.1109,-0.1623,NONE,317
1770512525.5648758,09:02:05.564,-7.977,0.05,-4.209,-0.048,1.8551,-0.257,NONE,318
1770512525.5721295,09:02:05.572,-7.063,-0.416,-5.374,-0.0324,1.9272,-0.1771,NONE,319
1770512525.5789897,09:02:05.578,-6.931,-1.153,-6.852,0.0039,2.0897,-0.0361,NONE,320
1770512525.5859096,09:02:05.585,-7.898,-1.711,-6.953,0.0281,2.1232,0.0308,NONE,321
1770512525.592699,09:02:05.592,-8.135,-1.615,-7.154,0.0492,2.0295,-0.0441,NONE,322
1770512525.5996614,09:02:05.599,-7.821,-1.385,-7.441,0.1291,2.0302,-0.0553,NONE,323
1770512525.6066158,09:02:05.606,-8.879,-1.627,-6.307,0.207,2.0086,0.0049,NONE,324
1770512525.6140206,09:02:05.614,-10.07,-1.122,-5.161,0.2322,1.6575,-0.0986,NONE,325
1770512525.6210165,09:02:05.621,-8.977,-0.103,-5.869,0.1717,1.5132,-0.0345,NONE,326
1770512525.6275384,09:02:05.627,-9.513,0.146,-5.34,0.0719,1.3936,-0.0416,NONE,327
1770512525.6354854,09:02:05.635,-10.061,-0.144,-5.044,-0.0145,1.2426,-0.075,NONE,328
1770512525.6430912,09:02:05.643,-10.281,-0.517,-5.62,-0.0801,1.1114,-0.1656,NONE,329
1770512525.6503117,09:02:05.650,-9.058,-0.699,-6.328,-0.0965,1.0821,-0.2206,NONE,330
1770512525.656869,09:02:05.656,-8.424,-1.125,-6.816,-0.0747,0.9934,-0.2454,NONE,331
1770512525.663982,09:02:05.663,-8.173,-1.498,-7.372,-0.0644,0.9085,-0.2004,NONE,332
1770512525.6707492,09:02:05.670,-7.266,-1.16,-7.319,-0.0582,0.7795,-0.1463,NONE,333
1770512525.6780157,09:02:05.678,-7.049,-0.785,-6.852,-0.069,0.7461,-0.0397,NONE,334
1770512525.6846817,09:02:05.684,-7.429,-0.849,-6.984,-0.054,0.6839,0.0947,NONE,335
1770512525.6919367,09:02:05.691,-8.089,-0.892,-6.852,-0.0372,0.6715,0.2477,NONE,336
1770512525.6989741,09:02:05.698,-8.659,-0.892,-6.642,-0.0544,0.6222,0.2153,NONE,337
1770512525.7068784,09:02:05.706,-9.197,-1.275,-6.833,-0.0465,0.6348,0.0556,NONE,338
1770512525.7138996,09:02:05.713,-8.561,-1.05,-6.91,-0.0289,0.6801,-0.0813,NONE,339
1770512525.7212718,09:02:05.721,-8.003,-0.993,-6.563,-0.0432,0.682,-0.1623,NONE,340
1770512525.7277591,09:02:05.727,-7.97,-1.199,-6.386,-0.0489,0.5958,-0.1628,NONE,341
1770512525.7346992,09:02:05.734,-7.697,-0.866,-6.4,-0.0702,0.4002,-0.0874,NONE,342
1770512525.741761,09:02:05.741,-7.491,-0.481,-6.101,-0.112,0.2258,0.0564,NONE,343
1770512525.7488658,09:02:05.748,-7.467,-0.141,-5.821,-0.1956,0.0497,0.1769,NONE,344
1770512525.7556758,09:02:05.755,-7.769,-0.218,-5.883,-0.2801,-0.1476,0.352,NONE,345
1770512525.7628746,09:02:05.762,-8.276,-0.648,-6.429,-0.3335,-0.34,0.5445,NONE,346
1770512525.7699535,09:02:05.769,-9.453,-1.263,-6.895,-0.3281,-0.4976,0.518,NONE,347
1770512525.776892,09:02:05.776,-8.735,-1.684,-7.896,-0.309,-0.3577,0.3078,NONE,348
1770512525.7839677,09:02:05.783,-8.671,-2.192,-8.494,-0.2024,-0.0991,0.0838,NONE,349
1770512525.7908134,09:02:05.790,-8.915,-2.464,-8.46,-0.0711,0.0306,-0.1571,NONE,350
1770512525.7977347,09:02:05.797,-8.082,-1.957,-8.245,0.0337,0.0898,-0.2805,NONE,351
1770512525.8046954,09:02:05.804,-7.795,-1.333,-7.235,0.0858,0.0843,-0.2741,NONE,352
1770512525.811681,09:02:05.811,-8.211,-0.766,-6.127,0.0393,-0.0349,-0.2493,NONE,353
1770512525.818833,09:02:05.818,-8.302,-0.44,-5.967,-0.0418,-0.1958,-0.1731,NONE,354
1770512525.8258367,09:02:05.825,-8.14,-0.275,-5.809,-0.1019,-0.3283,-0.0697,NONE,355
1770512525.833059,09:02:05.833,-7.63,-0.172,-5.974,-0.1724,-0.429,0.0478,NONE,356
1770512525.8398862,09:02:05.839,-8.266,-0.376,-6.084,-0.2376,-0.5654,0.1692,NONE,357
1770512525.8467627,09:02:05.846,-9.262,-0.773,-6.23,-0.2411,-0.7322,0.2214,NONE,358
1770512525.8538008,09:02:05.853,-10.441,-1.5,-6.891,-0.2172,-0.8953,0.038,NONE,359
1770512525.860894,09:02:05.860,-9.132,-1.474,-7.654,-0.1685,-0.7967,-0.1829,NONE,360
1770512525.8679278,09:02:05.867,-8.211,-1.51,-7.9,-0.0757,-0.5618,-0.3079,NONE,361
1770512525.874717,09:02:05.874,-8.632,-1.72,-7.573,0.0088,-0.5017,-0.4566,NONE,362
1770512525.881684,09:02:05.881,-8.946,-1.433,-7.072,0.0636,-0.5656,-0.488,NONE,363
1770512525.8888683,09:02:05.888,-9.644,-0.833,-6.034,0.0617,-0.6795,-0.4732,NONE,364
1770512525.8966103,09:02:05.896,-10.807,-0.414,-5.199,-0.0215,-0.858,-0.5091,NONE,365
1770512525.9032228,09:02:05.903,-12.178,-0.187,-4.654,-0.1561,-1.0722,-0.5979,NONE,366
1770512525.910155,09:02:05.910,-12.937,0.053,-4.235,-0.3204,-1.3245,-0.7798,NONE,367
1770512525.9167655,09:02:05.916,-12.657,0.093,-4.292,-0.4716,-1.5689,-0.953,NONE,368
1770512525.9240024,09:02:05.924,-11.716,-0.165,-5.259,-0.5742,-1.7789,-1.0071,NONE,369
1770512525.9310744,09:02:05.931,-10.142,-0.488,-6.503,-0.6254,-1.9712,-0.963,NONE,370
1770512525.9380302,09:02:05.938,-8.802,-0.806,-7.12,-0.5987,-2.1039,-0.7615,NONE,371
1770512525.9448538,09:02:05.944,-9.054,-1.151,-7.319,-0.5589,-2.309,-0.4908,NONE,372
1770512525.9520583,09:02:05.952,-10.661,-1.433,-7.07,-0.5023,-2.5724,-0.2666,NONE,373
1770512525.9591277,09:02:05.959,-12.669,-1.641,-6.52,-0.4167,-2.9579,-0.1679,NONE,374
1770512525.9660032,09:02:05.966,-14.662,-1.45,-6.927,-0.2686,-3.3755,-0.2466,NONE,375
1770512525.9727285,09:02:05.972,-16.772,1.73,-6.257,0.3921,-3.9333,0.0109,NONE,376
1770512525.9800358,09:02:05.980,-16.006,-0.72,-3.479,0.1884,-4.3657,-0.5498,NONE,377
1770512525.9871428,09:02:05.987,-5.946,1.44,-7.372,-0.0697,-4.3657,-0.1364,NONE,378
1770512525.9939947,09:02:05.993,-6.931,-0.605,-7.398,-0.1741,-4.2542,-0.297,NONE,379
1770512526.0009174,09:02:06.000,-7.355,-1.687,-8.135,-0.0642,-3.6416,0.0553,NONE,380
1770512526.0077507,09:02:06.007,-8.329,-2.462,-7.714,0.1242,-3.4788,0.3714,NONE,381
1770512526.0147924,09:02:06.014,-11.779,-2.558,-5.735,0.2489,-3.863,0.3199,NONE,382
1770512526.0218458,09:02:06.021,-12.08,-1.68,-4.965,0.3293,-3.9976,0.589,NONE,383
1770512526.0287647,09:02:06.028,-13.15,-0.531,-2.888,0.2337,-4.2789,0.5522,NONE,384
1770512526.0355647,09:02:06.035,-13.133,0.529,-1.754,0.0899,-4.3657,0.7549,NONE,385
1770512526.0428038,09:02:06.042,-13.973,0.462,-0.708,-0.1287,-4.3657,0.7723,NONE,386
1770512526.0499787,09:02:06.049,-13.248,-0.249,-2.098,-0.3206,-4.3657,0.9409,NONE,387
1770512526.057251,09:02:06.057,-11.647,-1.591,-4.201,-0.4327,-4.3657,1.0555,NONE,388
1770512526.0637105,09:02:06.063,-9.711,-2.235,-5.065,-0.3305,-4.3657,1.3997,NONE,389
1770512526.0706236,09:02:06.070,-8.601,-2.881,-5.517,-0.2899,-4.3657,1.3079,NONE,390
1770512526.0778372,09:02:06.077,-8.003,-3.441,-5.948,-0.0879,-4.3657,1.3931,NONE,391
1770512526.084934,09:02:06.084,-7.403,-3.022,-6.13,0.0374,-4.3657,1.3717,NONE,392
1770512526.091915,09:02:06.091,-9.805,-2.862,-4.457,0.2313,-4.0557,1.3125,NONE,393
1770512526.098749,09:02:06.098,-12.183,-2.622,-2.204,0.3691,-3.8957,0.9947,NONE,394
1770512526.1057827,09:02:06.105,-14.162,-1.945,-0.419,0.3497,-3.979,0.6049,NONE,395
1770512526.1127217,09:02:06.112,-14.738,-1.153,0.675,0.3231,-4.1839,0.1773,NONE,396
1770512526.119701,09:02:06.119,-14.133,-0.55,1.838,0.2634,-4.3657,-0.0958,NONE,397
1770512526.126654,09:02:06.126,-14.066,-0.847,1.314,0.1887,-4.3657,-0.4006,NONE,398
1770512526.134235,09:02:06.134,-11.441,-0.727,-0.041,0.1867,-4.3657,-0.5013,NONE,399
1770512526.1410468,09:02:06.141,-8.204,-0.486,-1.01,0.2268,-4.3657,-0.5781,NONE,400
1770512526.1478276,09:02:06.147,-4.831,-0.069,-1.792,0.2687,-4.3657,-0.5015,NONE,401
1770512526.1553898,09:02:06.155,-4.216,0.007,-1.318,0.3078,-3.9398,-0.2467,NONE,402
1770512526.1629293,09:02:06.162,-6.726,-0.213,0.347,0.3849,-3.5859,-0.0829,NONE,403
1770512526.1695952,09:02:06.169,-11.657,0.84,4.295,0.3834,-3.3983,0.3144,NONE,404
1770512526.177213,09:02:06.177,-12.269,-0.407,2.936,0.2991,-4.0302,-0.0873,NONE,405
1770512526.1840904,09:02:06.184,-14.578,-0.746,4.058,0.304,-4.3657,-0.2992,NONE,406
1770512526.1922443,09:02:06.192,-13.083,-0.581,3.586,0.2719,-4.3657,-0.4525,NONE,407
1770512526.1977236,09:02:06.197,-11.494,-3.134,1.402,0.1893,-4.3657,-0.6098,NONE,408
1770512526.2047608,09:02:06.204,-6.087,-0.376,0.333,0.3198,-4.3657,-0.7882,NONE,409
1770512526.2119982,09:02:06.211,-4.725,-0.543,0.45,0.4459,-4.3657,-0.9158,NONE,410
1770512526.2185714,09:02:06.218,-3.972,0.467,1.668,0.4723,-4.3657,-0.7564,NONE,411
1770512526.225796,09:02:06.225,-6.893,0.763,3.46,0.4776,-4.3312,-0.5661,NONE,412
1770512526.2328374,09:02:06.232,-10.087,0.746,5.431,0.4747,-4.3657,-0.4966,NONE,413
1770512526.2396567,09:02:06.239,-11.078,0.598,5.484,0.4096,-4.3657,-0.4265,NONE,414
1770512526.2466278,09:02:06.246,-12.13,-0.115,5.132,0.377,-4.3657,-0.1797,NONE,415
1770512526.253817,09:02:06.253,-10.819,-0.091,4.395,0.4165,-4.3657,-0.0103,NONE,416
1770512526.260562,09:02:06.260,-10.128,-0.134,4.51,0.3559,-4.3657,0.1136,NONE,417
1770512526.267583,09:02:06.267,-6.919,0.199,4.017,0.2599,-4.3657,0.3264,NONE,418
1770512526.2745593,09:02:06.274,-4.785,-0.115,3.019,0.2234,-4.3657,0.2013,NONE,419
1770512526.2816393,09:02:06.281,-3.508,-0.292,3.364,0.2132,-4.3657,0.0063,NONE,420
1770512526.2887692,09:02:06.288,-2.354,-0.134,3.596,0.1893,-4.3657,-0.2116,NONE,421
1770512526.2956786,09:02:06.295,-2.204,-0.51,3.496,0.1575,-4.3657,-0.5569,NONE,422
1770512526.3026075,09:02:06.302,-2.201,-0.141,4.338,0.1717,-4.3657,-0.8575,NONE,423
1770512526.3096306,09:02:06.309,-1.871,0.177,5.446,0.1026,-4.3657,-1.0094,NONE,424
1770512526.3167179,09:02:06.316,-2.273,0.213,5.402,0.1539,-4.3657,-0.9113,NONE,425
1770512526.3235724,09:02:06.323,-1.471,1.108,6.034,0.1728,-4.3657,-0.7753,NONE,426
1770512526.3305407,09:02:06.330,-0.074,1.156,6.984,0.1146,-4.3657,-0.6394,NONE,427
1770512526.337524,09:02:06.337,2.948,0.964,6.898,0.0314,-4.3657,-0.6158,NONE,428
1770512526.3444817,09:02:06.344,4.579,0.483,6.182,0.1017,-4.3657,-0.3604,NONE,429
1770512526.3515317,09:02:06.351,4.792,0.112,5.245,0.1665,-4.3657,0.0215,NONE,430
1770512526.3586104,09:02:06.358,3.589,-0.366,5.278,0.2634,-4.0428,0.1701,NONE,431
1770512526.365494,09:02:06.365,1.402,-1.151,5.383,0.4199,-3.7734,0.1817,NONE,432
1770512526.3725996,09:02:06.372,1.115,-1.694,5.192,0.6167,-3.5865,-0.0067,NONE,433
1770512526.3796637,09:02:06.379,1.34,-1.17,5.201,0.7649,-3.3358,-0.1625,NONE,434
1770512526.3865452,09:02:06.386,1.517,-0.321,6.118,0.7614,-3.0667,-0.1112,NONE,435
1770512526.3935127,09:02:06.393,2.328,0.646,7.795,0.7938,-2.9356,-0.1311,NONE,436
1770512526.4003038,09:02:06.400,3.01,1.672,8.687,0.6969,-2.8218,0.058,NONE,437
1770512526.4072833,09:02:06.407,2.646,2.369,8.977,0.5021,-2.6485,0.5033,NONE,438
1770512526.414454,09:02:06.414,0.024,1.141,10.078,0.41,-2.9848,0.6873,NONE,439
1770512526.4213834,09:02:06.421,0.778,0.857,9.393,0.3507,-3.1148,0.696,NONE,440
1770512526.4284985,09:02:06.428,1.089,0.342,8.941,0.319,-3.0657,0.5119,NONE,441
1770512526.4353883,09:02:06.435,3.132,-0.074,7.864,0.2851,-2.8717,0.17,NONE,442
1770512526.4427264,09:02:06.442,4.955,-0.012,7.194,0.2361,-2.2667,0.0027,NONE,443
1770512526.4494934,09:02:06.449,5.233,0.167,7.369,0.1545,-1.6635,-0.1668,NONE,444
1770512526.4567695,09:02:06.456,4.122,0.285,7.563,0.0934,-1.0868,-0.1628,NONE,445
1770512526.4636831,09:02:06.463,1.797,-0.081,8.539,0.0911,-0.9707,-0.2579,NONE,446
1770512526.4704869,09:02:06.470,2.424,0.01,8.544,0.1054,-1.018,-0.3681,NONE,447
1770512526.4773839,09:02:06.477,3.704,0.091,8.247,0.143,-0.9065,-0.3251,NONE,448
1770512526.4846337,09:02:06.484,4.902,0.388,8.092,0.1663,-0.7336,-0.2918,NONE,449
1770512526.4915507,09:02:06.491,5.496,0.883,8.152,0.1335,-0.4399,-0.1749,NONE,450
1770512526.4987533,09:02:06.498,4.68,0.842,8.329,0.1027,-0.212,-0.0131,NONE,451
1770512526.5052683,09:02:06.505,3.637,0.67,8.781,0.1011,-0.2181,0.0755,NONE,452
1770512526.5123136,09:02:06.512,4.12,0.912,8.781,0.0827,-0.1736,0.1074,NONE,453
1770512526.5194778,09:02:06.519,5.271,1.175,8.774,0.0212,0.0337,0.1223,NONE,454
1770512526.5264711,09:02:06.526,6.149,1.495,8.857,-0.0745,0.3605,0.1596,NONE,455
1770512526.5333812,09:02:06.533,6.522,1.498,8.812,-0.1701,0.7254,0.2082,NONE,456
1770512526.540461,09:02:06.540,6.867,1.57,8.798,-0.2778,1.0793,0.2269,NONE,457
1770512526.5476017,09:02:06.547,7.446,1.723,8.613,-0.388,1.4805,0.2729,NONE,458
1770512526.5547783,09:02:06.554,7.467,1.598,8.297,-0.4948,1.8606,0.319,NONE,459
1770512526.5614717,09:02:06.561,7.666,1.316,7.683,-0.5962,2.2453,0.2795,NONE,460
1770512526.5683177,09:02:06.568,8.807,1.134,6.51,-0.6753,2.8429,0.2153,NONE,461
1770512526.5752463,09:02:06.575,8.254,1.026,5.867,-0.7874,3.5505,0.1307,NONE,462
1770512526.5826206,09:02:06.582,6.06,1.132,5.771,-0.9348,4.1436,0.0931,NONE,463
1770512526.5893753,09:02:06.589,2.682,-0.002,5.804,-0.9232,4.3656,0.0277,NONE,464
1770512526.5966089,09:02:06.596,-0.603,-0.057,6.738,-0.825,4.3656,-0.1787,NONE,465
1770512526.6037116,09:02:06.603,-1.73,0.402,7.486,-0.8379,4.2987,-0.2308,NONE,466
1770512526.610789,09:02:06.610,-2.495,0.043,7.833,-0.7882,4.0586,-0.2996,NONE,467
1770512526.619053,09:02:06.619,-2.39,0.263,8.451,-0.7811,3.7986,-0.3168,NONE,468
1770512526.6265836,09:02:06.626,-1.151,0.287,8.69,-0.737,3.6459,-0.2739,NONE,469
1770512526.633895,09:02:06.633,0.479,0.156,8.257,-0.7318,3.6263,-0.2968,NONE,470
1770512526.6407082,09:02:06.640,3.046,0.084,7.479,-0.7719,4.0929,-0.2257,NONE,471
1770512526.647513,09:02:06.647,4.29,-0.084,6.893,-0.8108,4.3656,-0.3111,NONE,472
1770512526.6546624,09:02:06.654,6.651,-1.665,4.247,-1.092,4.3656,-1.343,NONE,473
1770512526.6616697,09:02:06.661,3.917,-0.251,5.139,-1.0608,4.3656,-0.2809,NONE,474
1770512526.6685607,09:02:06.668,1.462,-1.428,4.381,-1.0876,4.3656,-0.5376,NONE,475
1770512526.6756861,09:02:06.675,-2.105,-1.962,3.936,-1.0355,4.3656,-0.2569,NONE,476
1770512526.6838663,09:02:06.683,-4.768,-2.85,4.041,-0.8215,4.3656,-0.1138,NONE,477
1770512526.691836,09:02:06.691,-5.46,-2.818,3.854,-0.5933,4.3656,0.1749,NONE,478
1770512526.6986635,09:02:06.698,-5.874,-3.496,3.388,-0.3885,4.3656,0.2679,NONE,479
1770512526.7056532,09:02:06.705,-5.651,-2.637,3.228,-0.1825,4.3656,0.3524,NONE,480
1770512526.7126048,09:02:06.712,-6.324,-2.11,3.567,-0.0468,4.3656,0.3973,NONE,481
1770512526.7196395,09:02:06.719,-6.845,-1.663,4.716,0.1119,4.3656,0.3798,NONE,482
1770512526.726776,09:02:06.726,-6.642,-0.849,5.249,0.192,4.3656,0.2121,NONE,483
1770512526.7335076,09:02:06.733,-5.783,0.12,5.249,0.1573,4.3656,0.1328,NONE,484
1770512526.740797,09:02:06.740,-6.659,0.993,6.379,-0.016,4.3656,-0.045,NONE,485
1770512526.7475333,09:02:06.747,-8.029,1.424,7.64,-0.214,4.3656,-0.1733,NONE,486
1770512526.7547762,09:02:06.754,-7.484,2.29,8.381,-0.4576,4.3656,-0.3152,NONE,487
1770512526.7614865,09:02:06.761,-6.704,2.364,8.015,-0.7841,4.3656,-0.305,NONE,488
1770512526.7685587,09:02:06.768,-4.9,2.17,6.991,-1.0276,4.3656,-0.2377,NONE,489
1770512526.775541,09:02:06.775,-2.9,1.773,5.175,-1.1588,4.3656,0.0442,NONE,490
1770512526.7825577,09:02:06.782,-2.766,0.794,3.62,-1.2152,4.3656,0.3956,NONE,491
1770512526.7894876,09:02:06.789,-2.763,-0.194,1.328,-1.1337,4.3656,0.8095,NONE,492
1770512526.79668,09:02:06.796,-4.189,-1.132,0.215,-0.9651,4.3656,1.1053,NONE,493
1770512526.80371,09:02:06.803,-6.072,-2.022,-0.852,-0.7372,4.3656,1.2252,NONE,494
1770512526.8117962,09:02:06.811,-7.838,-2.732,-1.993,-0.4094,4.3656,1.101,NONE,495
1770512526.8187225,09:02:06.818,-10.532,-3.199,-1.94,-0.1055,4.3656,0.7934,NONE,496
1770512526.8256204,09:02:06.825,-13.006,-2.555,-0.768,0.0614,4.3656,0.3635,NONE,497
1770512526.8328152,09:02:06.832,-14.26,-1.486,0.675,0.1061,4.3656,-0.1298,NONE,498
1770512526.8397336,09:02:06.839,-13.987,-0.682,1.871,0.0332,4.3656,-0.5584,NONE,499
1770512526.846782,09:02:06.846,-11.98,-1.11,1.713,-0.4746,4.3656,-1.3619,NONE,500
1770512526.8538015,09:02:06.853,-10.398,0.938,2.326,-0.4354,4.3656,-0.8637,NONE,501
1770512526.8604388,09:02:06.860,-6.946,1.464,1.455,-0.7143,4.3656,-0.7613,NONE,502
1770512526.8678632,09:02:06.867,-6.139,0.263,-0.282,-0.8632,4.3656,-0.435,NONE,503
1770512526.8748693,09:02:06.874,-5.764,-0.617,-2.149,-0.8414,4.3656,0.0365,NONE,504
1770512526.8815367,09:02:06.881,-7.929,-2.201,-3.78,-0.7033,4.3656,0.3587,NONE,505
1770512526.888706,09:02:06.888,-10.747,-3.551,-4.895,-0.4598,4.3656,0.4096,NONE,506
1770512526.8962657,09:02:06.896,-13.513,-4.989,-5.503,-0.174,4.3656,0.2142,NONE,507
1770512526.90266,09:02:06.902,-14.796,-5.635,-6.106,0.1624,4.3656,-0.2,NONE,508
1770512526.9096756,09:02:06.909,-14.162,-5.355,-6.336,0.5033,4.3656,-0.66,NONE,509
1770512526.9166496,09:02:06.916,-12.903,-4.218,-5.125,0.5677,4.3656,-1.299,NONE,510
1770512526.9236212,09:02:06.923,-11.075,-1.55,-3.07,0.5072,4.3656,-1.5571,NONE,511
1770512526.9306102,09:02:06.930,-8.965,0.699,-1.251,0.2366,4.3656,-1.606,NONE,512
1770512526.9375718,09:02:06.937,-7.324,0.957,-1.589,0.0068,4.3656,-1.2769,NONE,513
1770512526.9447262,09:02:06.944,-7.994,0.632,-1.101,-0.1523,4.3656,-0.7953,NONE,514
1770512526.9517586,09:02:06.951,-8.506,-0.184,-2.072,-0.3802,4.2908,-0.3536,NONE,515
1770512526.9587426,09:02:06.958,-8.065,-1.192,-4.0,-0.4848,3.9952,0.1362,NONE,516
1770512526.9657514,09:02:06.965,-9.109,-2.015,-5.367,-0.524,3.7535,0.5263,NONE,517
1770512526.9728525,09:02:06.972,-10.865,-3.787,-6.716,-0.4166,3.462,0.6722,NONE,518
1770512526.9800107,09:02:06.980,-11.298,-4.821,-7.671,-0.2996,3.1836,0.4938,NONE,519
1770512526.9865851,09:02:06.986,-9.054,-4.773,-8.503,-0.0909,3.1003,0.201,NONE,520
1770512526.9936252,09:02:06.993,-6.754,-3.766,-7.96,0.0811,3.2656,0.1081,NONE,521
1770512527.0005558,09:02:07.000,-6.749,-3.338,-7.647,0.1843,3.3432,0.052,NONE,522
1770512527.0077026,09:02:07.007,-7.271,-3.18,-7.75,0.2398,3.1993,0.0159,NONE,523
1770512527.01459,09:02:07.014,-9.099,-2.694,-6.694,0.3208,2.9958,0.2248,NONE,524
1770512527.0215676,09:02:07.021,-9.819,-1.457,-5.606,0.2505,2.5874,0.4022,NONE,525
1770512527.0286002,09:02:07.028,-8.934,0.27,-4.73,0.0889,2.2966,0.656,NONE,526
1770512527.03559,09:02:07.035,-8.537,0.191,-5.206,-0.0594,2.1438,0.934,NONE,527
1770512527.042681,09:02:07.042,-9.238,-0.361,-5.955,-0.1423,2.0933,1.0666,NONE,528
1770512527.049839,09:02:07.049,-10.015,-1.395,-6.816,-0.1724,2.0816,1.0724,NONE,529
1770512527.0567877,09:02:07.056,-11.063,-1.766,-7.25,-0.2633,1.9426,0.8138,NONE,530
1770512527.0638187,09:02:07.063,-9.477,-1.725,-8.185,-0.1491,2.1745,0.8041,NONE,531
1770512527.0708246,09:02:07.070,-10.034,-1.933,-8.01,-0.1564,2.2082,0.5131,NONE,532
1770512527.0777009,09:02:07.077,-10.446,-2.239,-7.963,-0.2057,2.0526,0.3832,NONE,533
1770512527.0847738,09:02:07.084,-9.4,-1.759,-7.881,-0.1482,1.7517,0.4958,NONE,534
1770512527.0918112,09:02:07.091,-9.08,-0.792,-7.264,-0.2284,1.4847,0.6479,NONE,535
1770512527.0987363,09:02:07.098,-9.726,-0.62,-6.757,-0.232,1.2604,0.8479,NONE,536
1770512527.1057248,09:02:07.105,-10.63,-0.129,-5.986,-0.318,0.9216,0.9294,NONE,537
1770512527.1126254,09:02:07.112,-11.003,0.153,-6.065,-0.4141,0.7175,0.9535,NONE,538
1770512527.1197982,09:02:07.119,-11.456,-0.043,-6.103,-0.4373,0.5532,0.9346,NONE,539
1770512527.126789,09:02:07.126,-10.877,-0.457,-7.029,-0.4864,0.3651,0.7677,NONE,540
1770512527.1337402,09:02:07.133,-11.472,-0.909,-7.228,-0.5004,0.3754,0.58,NONE,541
1770512527.1407065,09:02:07.140,-10.221,-1.258,-8.144,-0.411,0.4527,0.3898,NONE,542
1770512527.1476612,09:02:07.147,-10.554,-1.526,-8.214,-0.3471,0.4546,0.1536,NONE,543
1770512527.1546676,09:02:07.154,-9.714,-1.261,-8.046,-0.2843,0.5123,0.0505,NONE,544
1770512527.1623728,09:02:07.162,-10.247,-1.261,-7.616,-0.29,0.3691,-0.0372,NONE,545
1770512527.1686862,09:02:07.168,-8.161,-0.928,-8.257,-0.1972,0.3003,0.1144,NONE,546
1770512527.1756423,09:02:07.175,-8.814,-0.888,-7.661,-0.2663,-0.0032,0.2264,NONE,547
1770512527.1828024,09:02:07.182,-8.51,-0.809,-8.142,-0.1439,-0.0119,0.6308,NONE,548
1770512527.1899097,09:02:07.189,-9.917,-1.036,-7.812,-0.1374,-0.313,0.6133,NONE,549
1770512527.1968935,09:02:07.196,-9.228,-1.11,-8.049,-0.0751,-0.3421,0.6205,NONE,550
1770512527.2037392,09:02:07.203,-9.63,-1.036,-7.532,-0.1495,-0.4034,0.4113,NONE,551
1770512527.2107458,09:02:07.210,-8.293,-1.546,-8.455,-0.0622,-0.2478,0.3226,NONE,552
1770512527.2178338,09:02:07.217,-9.707,-1.687,-8.051,-0.0117,-0.2325,0.1897,NONE,553
1770512527.2247286,09:02:07.224,-9.226,-1.603,-7.984,0.0983,-0.2268,0.1282,NONE,554
1770512527.2316685,09:02:07.231,-9.24,-1.56,-7.539,0.1688,-0.3192,-0.0083,NONE,555
1770512527.2386606,09:02:07.238,-9.204,-0.864,-6.745,0.1131,-0.4001,-0.208,NONE,556
1770512527.2459285,09:02:07.245,-8.032,-0.486,-6.623,0.1235,-0.3452,-0.259,NONE,557
1770512527.2529597,09:02:07.252,-7.288,0.005,-6.541,0.0891,-0.3361,-0.2749,NONE,558
1770512527.2597625,09:02:07.259,-6.783,0.091,-6.154,0.041,-0.3452,-0.1027,NONE,559
1770512527.2665691,09:02:07.266,-6.534,0.227,-6.235,0.043,-0.3769,0.1422,NONE,560
1770512527.2737284,09:02:07.273,-7.283,-0.038,-6.02,0.0159,-0.4927,0.2477,NONE,561
1770512527.280846,09:02:07.280,-7.568,-0.05,-5.886,-0.0248,-0.5565,0.3264,NONE,562
1770512527.287903,09:02:07.287,-7.718,-0.117,-5.948,-0.0766,-0.6151,0.2939,NONE,563
1770512527.2949555,09:02:07.294,-7.872,-0.479,-6.199,-0.0822,-0.6263,0.2609,NONE,564
1770512527.3016498,09:02:07.301,-8.058,-0.919,-6.422,-0.0408,-0.6464,0.1853,NONE,565
1770512527.308623,09:02:07.308,-8.046,-1.314,-6.764,0.0266,-0.6082,0.0297,NONE,566
1770512527.3157737,09:02:07.315,-7.293,-1.201,-7.094,0.1095,-0.4293,-0.1013,NONE,567
1770512527.3228228,09:02:07.322,-7.47,-1.153,-6.797,0.2005,-0.2702,-0.2082,NONE,568
1770512527.3297622,09:02:07.329,-7.62,-1.426,-6.85,0.3183,-0.1825,-0.3034,NONE,569
1770512527.336757,09:02:07.336,-6.316,-0.691,-6.517,0.375,-0.0709,-0.3423,NONE,570
1770512527.3436072,09:02:07.343,-5.52,0.268,-5.532,0.3844,0.045,-0.2501,NONE,571
1770512527.3505147,09:02:07.350,-5.606,0.773,-4.867,0.2872,0.0947,-0.1263,NONE,572
1770512527.3576424,09:02:07.357,-6.577,0.651,-4.366,0.1728,0.0246,-0.0552,NONE,573
1770512527.364461,09:02:07.364,-6.871,0.679,-4.402,0.053,-0.0464,0.0246,NONE,574
1770512527.3716521,09:02:07.371,-7.127,0.483,-4.541,-0.062,-0.1222,0.0902,NONE,575
1770512527.3785925,09:02:07.378,-7.541,0.079,-4.938,-0.1529,-0.2109,0.1208,NONE,576
1770512527.3857605,09:02:07.385,-7.357,-0.335,-5.527,-0.1889,-0.2911,0.1464,NONE,577
1770512527.3943262,09:02:07.394,-7.077,-0.644,-5.996,-0.1948,-0.3659,0.1783,NONE,578
1770512527.4017158,09:02:07.401,-7.51,-0.866,-6.264,-0.1664,-0.4355,0.1776,NONE,579
1770512527.4087567,09:02:07.408,-7.881,-1.168,-6.455,-0.1174,-0.4526,0.1139,NONE,580
1770512527.4157107,09:02:07.415,-7.896,-1.263,-6.484,-0.048,-0.4547,0.0386,NONE,581
1770512527.4228032,09:02:07.422,-7.733,-1.242,-6.687,0.0097,-0.3833,-0.0546,NONE,582
1770512527.429936,09:02:07.429,-7.405,-1.043,-6.706,0.0694,-0.293,-0.1284,NONE,583
1770512527.436643,09:02:07.436,-6.838,-0.809,-6.532,0.0858,-0.2253,-0.1525,NONE,584
1770512527.4436047,09:02:07.443,-6.986,-0.507,-6.101,0.0833,-0.1736,-0.0626,NONE,585
1770512527.4510045,09:02:07.451,-7.685,-0.151,-5.307,0.0341,-0.2102,0.0115,NONE,586
1770512527.458154,09:02:07.458,-7.888,-0.031,-5.271,-0.03,-0.3162,0.0453,NONE,587
1770512527.4647467,09:02:07.464,-7.238,0.146,-5.302,-0.0946,-0.3489,0.1418,NONE,588
1770512527.4718313,09:02:07.471,-7.281,0.012,-5.532,-0.1552,-0.3401,0.2555,NONE,589
1770512527.4788792,09:02:07.478,-7.876,-0.514,-5.85,-0.1986,-0.3729,0.2269,NONE,590
1770512527.4858336,09:02:07.485,-8.199,-0.94,-6.18,-0.1924,-0.3856,0.1375,NONE,591
1770512527.4926784,09:02:07.492,-7.852,-1.024,-6.359,-0.1707,-0.3419,0.0481,NONE,592
1770512527.5004685,09:02:07.500,-7.601,-0.833,-6.383,-0.168,-0.2983,-0.0273,NONE,593
1770512527.5071464,09:02:07.507,-7.599,-0.933,-6.431,-0.1355,-0.2701,-0.03,NONE,594
1770512527.514074,09:02:07.514,-7.685,-0.94,-6.304,-0.0887,-0.2773,-0.0493,NONE,595
1770512527.5213335,09:02:07.521,-7.417,-0.785,-6.173,-0.0574,-0.2617,-0.0433,NONE,596
1770512527.5285592,09:02:07.528,-7.29,-0.627,-6.017,-0.0328,-0.2549,0.0069,NONE,597
1770512527.5357182,09:02:07.535,-7.544,-0.462,-5.651,-0.0428,-0.2931,0.0713,NONE,598
1770512527.5418403,09:02:07.541,-7.455,-0.273,-5.359,-0.0636,-0.3411,0.1275,NONE,599
1770512527.5486255,09:02:07.548,-7.75,-0.182,-5.127,-0.0866,-0.4143,0.2022,NONE,600
1770512527.5561366,09:02:07.556,-8.135,-0.148,-5.034,-0.1263,-0.5137,0.2503,NONE,601
1770512527.5626266,09:02:07.562,-8.585,-0.261,-5.168,-0.1689,-0.5716,0.2148,NONE,602
1770512527.569791,09:02:07.569,-8.829,-0.514,-5.309,-0.2036,-0.5225,0.0598,NONE,603
1770512527.5768135,09:02:07.576,-8.671,-0.778,-5.57,-0.2004,-0.4295,-0.135,NONE,604
1770512527.583922,09:02:07.583,-7.714,-0.871,-5.922,-0.1456,-0.3275,-0.2426,NONE,605
1770512527.590949,09:02:07.590,-7.154,-0.902,-5.934,-0.0609,-0.2439,-0.2353,NONE,606
1770512527.598114,09:02:07.598,-6.912,-0.356,-5.446,-0.0316,-0.2149,-0.1764,NONE,607
1770512527.6049736,09:02:07.604,-7.19,0.045,-4.883,-0.026,-0.2403,-0.1026,NONE,608
1770512527.6116734,09:02:07.611,-7.465,0.313,-4.577,-0.053,-0.2936,-0.0016,NONE,609
1770512527.619236,09:02:07.619,-7.642,0.488,-4.634,-0.0963,-0.3411,0.1143,NONE,610
1770512527.6257298,09:02:07.625,-8.12,0.184,-4.637,-0.1274,-0.3595,0.1743,NONE,611
1770512527.6328151,09:02:07.632,-7.972,0.014,-5.051,-0.1619,-0.3219,0.1639,NONE,612
1770512527.6402555,09:02:07.640,-8.07,-0.325,-5.3,-0.1709,-0.277,0.0873,NONE,613
1770512527.6470897,09:02:07.647,-8.123,-0.574,-5.41,-0.1592,-0.2146,-0.0019,NONE,614
1770512527.6539288,09:02:07.653,-7.994,-0.586,-5.429,-0.1403,-0.1757,-0.0754,NONE,615
1770512527.661192,09:02:07.661,-7.79,-0.431,-5.06,-0.14,-0.1765,-0.1339,NONE,616
1770512527.6679277,09:02:07.667,-7.453,-0.096,-4.874,-0.1669,-0.1797,-0.1447,NONE,617
1770512527.674706,09:02:07.674,-7.491,0.215,-4.488,-0.2154,-0.1877,-0.0873,NONE,618
1770512527.681718,09:02:07.681,-7.8,0.407,-4.06,-0.2944,-0.2801,-0.0035,NONE,619
1770512527.6887183,09:02:07.688,-7.752,0.457,-4.221,-0.3724,-0.4214,0.1104,NONE,620
1770512527.695705,09:02:07.695,-7.733,0.574,-4.302,-0.4541,-0.5576,0.2891,NONE,621
1770512527.7025394,09:02:07.702,-8.053,0.62,-4.319,-0.545,-0.7289,0.4844,NONE,622
1770512527.7099078,09:02:07.709,-8.668,-0.105,-5.067,-0.5609,-0.8835,0.6257,NONE,623
1770512527.716961,09:02:07.716,-8.874,-0.639,-5.869,-0.5321,-0.8831,0.569,NONE,624
1770512527.7236567,09:02:07.723,-8.776,-0.837,-6.419,-0.4764,-0.7352,0.4245,NONE,625
1770512527.7307594,09:02:07.730,-9.51,-1.723,-6.898,-0.3571,-0.5303,0.1547,NONE,626
1770512527.737926,09:02:07.737,-8.202,-1.732,-7.369,-0.2177,-0.2442,-0.1849,NONE,627
1770512527.74462,09:02:07.744,-7.412,-1.66,-7.087,-0.0929,0.0781,-0.4294,NONE,628
1770512527.7516577,09:02:07.751,-6.989,-1.237,-6.618,0.0258,0.2944,-0.5309,NONE,629
1770512527.758839,09:02:07.758,-7.139,-0.596,-5.553,0.1033,0.34,-0.49,NONE,630
1770512527.76556,09:02:07.765,-7.319,0.098,-4.321,0.0915,0.2188,-0.406,NONE,631
1770512527.7727575,09:02:07.772,-7.049,0.962,-3.491,0.0128,0.109,-0.2483,NONE,632
1770512527.7810168,09:02:07.781,-7.271,1.093,-3.122,-0.1302,-0.0033,-0.0789,NONE,633
1770512527.7878735,09:02:07.787,-7.348,0.888,-3.381,-0.2345,-0.0636,0.0498,NONE,634
1770512527.7945654,09:02:07.794,-7.45,0.378,-3.996,-0.2994,-0.0919,0.126,NONE,635
1770512527.801794,09:02:07.801,-7.482,-0.167,-4.62,-0.3296,-0.0829,0.1283,NONE,636
1770512527.808693,09:02:07.808,-7.4,-0.541,-4.984,-0.3043,-0.062,0.1077,NONE,637
1770512527.8157911,09:02:07.815,-7.517,-0.696,-5.017,-0.2409,-0.0464,0.1314,NONE,638
1770512527.8227227,09:02:07.822,-7.943,-0.572,-4.749,-0.1962,-0.0957,0.124,NONE,639
1770512527.8296435,09:02:07.829,-8.183,-0.376,-4.477,-0.1604,-0.1414,0.1271,NONE,640
1770512527.837412,09:02:07.837,-8.195,-0.246,-4.395,-0.1194,-0.1767,0.1239,NONE,641
1770512527.8447542,09:02:07.844,-8.183,0.033,-4.393,-0.0853,-0.1649,0.1138,NONE,642
1770512527.8516364,09:02:07.851,-8.295,0.211,-4.228,-0.0771,-0.1567,0.1005,NONE,643
1770512527.858744,09:02:07.858,-8.53,0.258,-4.063,-0.0978,-0.1857,0.0921,NONE,644
1770512527.8655524,09:02:07.865,-8.8,0.27,-3.831,-0.1091,-0.2797,0.1211,NONE,645
1770512527.8725636,09:02:07.872,-8.745,0.476,-3.857,-0.1692,-0.3917,0.166,NONE,646
1770512527.879506,09:02:07.879,-8.309,0.622,-4.168,-0.2158,-0.5073,0.2104,NONE,647
1770512527.886679,09:02:07.886,-7.781,0.613,-4.433,-0.2573,-0.4719,0.2707,NONE,648
1770512527.8937502,09:02:07.893,-8.228,0.292,-4.56,-0.3064,-0.4198,0.2759,NONE,649
1770512527.9010003,09:02:07.901,-8.891,-0.38,-4.996,-0.2967,-0.4202,0.2034,NONE,650
1770512527.9078484,09:02:07.907,-9.149,-0.672,-5.302,-0.2569,-0.4277,0.1211,NONE,651
1770512527.9146066,09:02:07.914,-8.809,-0.687,-5.52,-0.2048,-0.425,0.0661,NONE,652
1770512527.9217994,09:02:07.921,-8.975,-0.51,-5.259,-0.1631,-0.4001,0.0035,NONE,653
1770512527.92892,09:02:07.928,-9.223,-0.457,-4.931,-0.1387,-0.4182,-0.0718,NONE,654
1770512527.9358037,09:02:07.935,-9.388,-0.321,-4.749,-0.1186,-0.4587,-0.1434,NONE,655
1770512527.9427323,09:02:07.942,-9.451,-0.201,-4.613,-0.1021,-0.5097,-0.1828,NONE,656
1770512527.9496782,09:02:07.949,-10.113,0.053,-4.199,-0.1162,-0.565,-0.221,NONE,657
1770512527.9570332,09:02:07.957,-11.3,0.146,-3.402,-0.1639,-0.6996,-0.3443,NONE,658
1770512527.9644818,09:02:07.964,-12.231,-0.112,-2.974,-0.213,-0.9657,-0.5802,NONE,659
1770512527.9719992,09:02:07.971,-8.343,1.158,-4.199,-0.3718,-1.3213,-0.7193,NONE,660
1770512527.9787812,09:02:07.978,-3.531,1.625,-5.532,-0.4151,-0.7172,-0.2447,NONE,661
1770512527.9856095,09:02:07.985,-4.419,0.885,-5.17,-0.4254,-0.4604,0.1199,NONE,662
1770512527.9925854,09:02:07.992,-7.247,-0.77,-5.623,-0.3913,-0.4956,0.3348,NONE,663
1770512527.9998689,09:02:07.999,-8.63,-1.419,-5.747,-0.2631,-0.635,0.4407,NONE,664
1770512528.0066993,09:02:08.006,-9.166,-1.258,-5.156,-0.1631,-0.7256,0.4498,NONE,665
1770512528.0138514,09:02:08.013,-9.171,-0.811,-4.881,-0.1304,-0.7089,0.3315,NONE,666
1770512528.0206974,09:02:08.020,-9.355,-0.656,-4.685,-0.0979,-0.6575,0.1924,NONE,667
1770512528.0276785,09:02:08.027,-9.31,-0.438,-4.539,-0.0663,-0.6323,0.0993,NONE,668
1770512528.034997,09:02:08.034,-10.271,-0.474,-4.182,-0.0195,-0.6948,0.0774,NONE,669
1770512528.0420067,09:02:08.042,-11.094,-0.294,-3.517,0.0084,-0.8701,0.028,NONE,670
1770512528.048839,09:02:08.048,-11.872,-0.127,-3.271,-0.0035,-1.1154,-0.0508,NONE,671
1770512528.0558546,09:02:08.055,-12.437,-0.51,-3.11,-0.0035,-1.3652,-0.2146,NONE,672
1770512528.062769,09:02:08.062,-12.274,-0.579,-3.366,0.0269,-1.6224,-0.4374,NONE,673
1770512528.069823,09:02:08.069,-10.326,-0.215,-3.859,0.1362,-1.7036,-0.6554,NONE,674
1770512528.0766115,09:02:08.076,-7.173,0.364,-4.563,0.2337,-1.6454,-0.7137,NONE,675
1770512528.083902,09:02:08.083,-2.723,2.251,-3.287,0.115,-0.8343,-0.107,NONE,676
1770512528.0905042,09:02:08.090,-1.775,1.881,-4.756,0.1503,-0.5088,0.026,NONE,677
1770512528.0976357,09:02:08.097,-5.702,0.534,-3.675,0.1306,-0.2076,0.3335,NONE,678
1770512528.104674,09:02:08.104,-8.008,-0.208,-3.486,0.1404,-0.2092,0.4546,NONE,679
1770512528.1117487,09:02:08.111,-9.723,-0.641,-3.333,0.2024,-0.396,0.4481,NONE,680
1770512528.1186206,09:02:08.118,-9.522,-0.132,-3.204,0.2423,-0.54,0.3672,NONE,681
1770512528.1257253,09:02:08.125,-9.286,0.223,-3.156,0.2505,-0.5177,0.2753,NONE,682
1770512528.132651,09:02:08.132,-9.147,0.584,-2.806,0.2653,-0.487,0.2013,NONE,683
1770512528.1395576,09:02:08.139,-8.601,1.034,-2.876,0.2631,-0.4096,0.1575,NONE,684
1770512528.146733,09:02:08.146,-8.616,1.428,-2.273,0.2212,-0.368,0.1171,NONE,685
1770512528.1535668,09:02:08.153,-8.898,1.534,-1.285,0.1212,-0.3575,0.1396,NONE,686
1770512528.1609654,09:02:08.160,-9.836,1.309,-1.381,-0.0157,-0.4097,-0.0017,NONE,687
1770512528.1678803,09:02:08.167,-8.798,1.515,-1.814,-0.0737,-0.4687,-0.1155,NONE,688
1770512528.1747162,09:02:08.174,-7.709,1.979,-1.806,-0.1744,-0.348,-0.0778,NONE,689
1770512528.181619,09:02:08.181,-7.465,1.998,-1.704,-0.2954,-0.2723,-0.0981,NONE,690
1770512528.1889462,09:02:08.188,-7.941,1.845,-2.079,-0.384,-0.259,-0.0577,NONE,691
1770512528.195677,09:02:08.195,-8.458,2.182,-2.278,-0.455,-0.3348,0.0151,NONE,692
1770512528.2025619,09:02:08.202,-9.027,2.883,-1.706,-0.5661,-0.4278,0.0933,NONE,693
1770512528.2095435,09:02:08.209,-9.568,3.285,-1.364,-0.6787,-0.5372,0.1787,NONE,694
1770512528.2166872,09:02:08.216,-9.656,3.811,-1.254,-0.8379,-0.6121,0.156,NONE,695
1770512528.2237275,09:02:08.223,-9.755,4.369,-1.266,-1.0175,-0.5733,0.1168,NONE,696
1770512528.230882,09:02:08.230,-10.884,5.438,-0.203,-1.2935,-0.3789,0.047,NONE,697
1770512528.2380471,09:02:08.238,-13.111,6.283,1.811,-1.7233,-0.2356,-0.2602,NONE,698
1770512528.2446094,09:02:08.244,-13.523,6.577,2.206,-2.2676,-0.2551,-0.8454,NONE,699
1770512528.2517796,09:02:08.251,-11.707,6.623,0.916,-2.7502,-0.0545,-1.1948,NONE,700
1770512528.25853,09:02:08.258,-10.53,6.517,0.201,-3.1491,0.1788,-1.4635,NONE,701
1770512528.2656126,09:02:08.265,-9.46,6.651,0.053,-3.5406,0.2443,-1.7052,NONE,702
1770512528.2726376,09:02:08.272,-8.79,6.895,-0.151,-3.9587,0.1671,-1.8358,NONE,703
1770512528.2799256,09:02:08.279,-8.539,6.996,-0.29,-4.3355,-0.0381,-1.7957,NONE,704
1770512528.2866917,09:02:08.286,-8.936,6.331,-1.06,-4.3657,-0.2471,-1.7461,NONE,705
1770512528.2941349,09:02:08.294,-9.726,6.154,-1.861,-4.3657,-0.4453,-1.6315,NONE,706
1770512528.3018994,09:02:08.301,11.738,7.929,0.038,-4.3657,-0.736,-1.5259,NONE,707
1770512528.308822,09:02:08.308,-13.597,9.539,2.0,-4.3657,-1.2696,-1.7168,NONE,708
1770512528.3158123,09:02:08.315,-12.999,10.716,1.656,-4.3657,-1.912,-1.9951,NONE,709
1770512528.3230393,09:02:08.323,-10.726,10.393,-1.117,-4.3657,-2.3679,-2.1694,NONE,710
1770512528.3297517,09:02:08.329,-7.905,8.333,-5.206,-4.3657,-2.3538,-2.1113,NONE,711
1770512528.3367584,09:02:08.336,-6.809,4.91,-9.544,-4.3657,-2.2856,-1.906,NONE,712
1770512528.3437402,09:02:08.343,-5.644,1.986,-12.477,-4.3657,-2.0254,-1.534,NONE,713
1770512528.3508542,09:02:08.350,-8.57,0.44,-9.991,-4.3657,-1.4759,-0.9065,NONE,714
1770512528.3578558,09:02:08.357,-6.915,1.735,-8.931,-4.3657,-1.7427,-1.2686,NONE,715
1770512528.3664787,09:02:08.366,-8.429,1.914,-6.491,-4.3657,-1.4422,-1.3331,NONE,716
1770512528.372649,09:02:08.372,-9.29,4.024,-4.053,-4.3657,-1.37,-1.7505,NONE,717
1770512528.3798726,09:02:08.379,-7.927,4.474,-4.79,-4.3657,-1.3486,-1.8439,NONE,718
1770512528.3870678,09:02:08.387,-8.082,3.395,-5.828,-4.3657,-1.3109,-1.6317,NONE,719
1770512528.3937235,09:02:08.393,-8.35,2.223,-6.316,-4.3657,-1.3741,-1.6036,NONE,720
1770512528.4007885,09:02:08.400,-8.051,-0.208,-7.795,-4.3657,-1.594,-1.5354,NONE,721
1770512528.4079216,09:02:08.407,-7.596,-2.737,-9.898,-4.3657,-1.7846,-1.5187,NONE,722
1770512528.4148102,09:02:08.414,-7.977,-2.62,-9.501,-4.3657,-1.5048,-1.3161,NONE,723
1770512528.4219985,09:02:08.421,-8.793,-0.206,-7.065,-4.3657,-1.4184,-1.3466,NONE,724
1770512528.4289808,09:02:08.428,-8.752,-0.354,-6.154,-4.3657,-1.1278,-1.2693,NONE,725
1770512528.4358926,09:02:08.435,-7.699,-1.373,-7.367,-4.0589,-1.0106,-1.0559,NONE,726
1770512528.4430296,09:02:08.443,-9.867,-1.809,-6.898,-3.8364,-0.8623,-0.8968,NONE,727
1770512528.4505363,09:02:08.450,-9.831,-1.101,-5.493,-3.8196,-0.9104,-1.089,NONE,728
1770512528.4567432,09:02:08.456,-8.214,-3.022,-6.599,-3.6898,-0.9161,-1.1098,NONE,729
1770512528.4637892,09:02:08.463,-7.659,-5.34,-8.276,-3.3537,-0.8499,-0.8788,NONE,730
1770512528.4707053,09:02:08.470,-7.252,-5.776,-8.57,-2.7571,-0.7056,-0.5393,NONE,731
1770512528.4779913,09:02:08.477,-9.173,-3.811,-5.017,-2.5271,-0.9385,-0.8324,NONE,732
1770512528.4848626,09:02:08.484,-7.752,-2.852,-4.467,-2.4481,-0.6715,-0.5963,NONE,733
1770512528.4918392,09:02:08.491,-8.568,-2.402,-3.577,-2.3126,-0.6588,-0.5052,NONE,734
1770512528.4987998,09:02:08.498,-9.312,-2.9,-3.35,-2.1611,-0.6808,-0.4457,NONE,735
1770512528.5057964,09:02:08.505,-9.331,-3.816,-3.787,-2.0915,-0.6952,-0.4666,NONE,736
1770512528.5130196,09:02:08.513,-9.609,-5.441,-5.091,-1.85,-0.7139,-0.4062,NONE,737
1770512528.519849,09:02:08.519,-9.788,-6.711,-5.388,-1.4474,-0.6331,-0.3463,NONE,738
1770512528.5267415,09:02:08.526,-9.295,-6.18,-4.902,-1.0492,-0.5501,-0.3609,NONE,739
1770512528.5339968,09:02:08.533,-9.154,-5.572,-3.512,-0.702,-0.4533,-0.3789,NONE,740
1770512528.5408607,09:02:08.540,-8.585,-4.603,-2.859,-0.4549,-0.319,-0.3214,NONE,741
1770512528.5480843,09:02:08.548,-8.192,-3.924,-1.739,-0.3126,-0.3098,-0.2618,NONE,742
1770512528.5548115,09:02:08.554,-7.661,-3.665,-1.483,-0.2678,-0.1769,-0.2218,NONE,743
1770512528.5618877,09:02:08.561,-7.209,-4.173,-1.675,-0.1761,0.073,-0.1816,NONE,744
1770512528.5689394,09:02:08.568,-7.666,-5.237,-2.184,-0.0096,0.3068,-0.1931,NONE,745
1770512528.575801,09:02:08.575,-7.884,-6.017,-2.735,0.3074,0.546,-0.1907,NONE,746
1770512528.582969,09:02:08.582,-8.305,-5.981,-2.591,0.5746,0.7096,-0.2064,NONE,747
1770512528.5896156,09:02:08.589,-8.47,-4.998,-1.747,0.7809,0.7731,-0.2264,NONE,748
1770512528.596708,09:02:08.596,-8.07,-4.29,-1.189,0.9823,0.8853,-0.1167,NONE,749
1770512528.6035223,09:02:08.603,-8.099,-4.821,-1.768,1.2289,1.0527,0.0242,NONE,750
1770512528.6106076,09:02:08.610,-8.879,-5.809,-2.306,1.5102,1.1053,0.0155,NONE,751
1770512528.61787,09:02:08.617,-8.931,-6.515,-3.185,1.8407,1.0814,-0.0759,NONE,752
1770512528.62463,09:02:08.624,-9.176,-6.766,-4.051,2.2311,1.113,-0.1563,NONE,753
1770512528.6316,09:02:08.631,-9.355,-6.266,-4.228,2.6672,1.3243,-0.1788,NONE,754
1770512528.6387496,09:02:08.638,-10.613,-5.668,-3.632,3.0658,1.5343,-0.2719,NONE,755
1770512528.6456397,09:02:08.645,-5.386,-4.491,-6.891,3.7085,2.3186,0.0081,NONE,756
1770512528.6526463,09:02:08.652,-13.406,-3.974,-1.976,3.604,1.5823,-0.7428,NONE,757
1770512528.6596942,09:02:08.659,-12.109,-4.587,-4.063,3.9376,1.7869,-0.6279,NONE,758
1770512528.6666584,09:02:08.666,-12.276,-3.687,-4.118,4.2328,1.7004,-0.6893,NONE,759
1770512528.673798,09:02:08.673,-12.657,-2.498,-3.646,4.3656,1.5515,-0.8326,NONE,760
1770512528.6807747,09:02:08.680,-14.145,-0.873,-2.07,4.3656,1.9075,-0.2737,NONE,761
1770512528.6875365,09:02:08.687,-10.319,0.268,-3.115,4.3656,1.2906,-0.3568,NONE,762
1770512528.6943588,09:02:08.694,-8.841,0.787,-2.175,4.3656,0.6563,0.235,NONE,763
1770512528.7014134,09:02:08.701,-7.869,1.692,-1.153,4.3656,0.1844,1.3033,NONE,764
1770512528.708507,09:02:08.708,-5.237,1.637,-1.388,4.3656,-0.3273,1.9381,NONE,765
1770512528.715714,09:02:08.715,-6.685,-0.651,-1.546,4.3656,-0.6075,2.2072,NONE,766
1770512528.722638,09:02:08.722,-3.752,-3.333,-6.01,4.3656,-0.4475,2.3113,NONE,767
1770512528.7294884,09:02:08.729,-7.685,-6.319,-6.546,4.3656,0.0056,2.2497,NONE,768
1770512528.7379985,09:02:08.737,-4.292,-7.867,-12.346,4.3656,0.6354,1.9799,NONE,769
1770512528.7445939,09:02:08.744,-5.067,-6.826,-13.64,4.3656,1.1179,1.6422,NONE,770
1770512528.7516422,09:02:08.751,-6.515,-4.467,-13.396,4.3656,1.677,1.546,NONE,771
1770512528.7585952,09:02:08.758,-8.006,-0.404,-11.291,4.3656,2.036,1.2235,NONE,772
1770512528.7654884,09:02:08.765,-9.932,4.926,-7.259,4.3656,2.2151,0.9357,NONE,773
1770512528.7725077,09:02:08.772,-12.714,9.525,-0.991,4.3656,2.1328,0.7569,NONE,774
1770512528.779334,09:02:08.779,-12.54,9.132,2.627,4.3656,2.0889,0.7104,NONE,775
1770512528.7862837,09:02:08.786,-7.283,7.9,1.275,4.3656,1.4,0.481,NONE,776
1770512528.793586,09:02:08.793,-11.164,5.761,2.795,4.3656,1.2552,1.2476,NONE,777
1770512528.8004618,09:02:08.800,-7.144,3.831,-0.129,4.3656,0.7358,1.8129,NONE,778
1770512528.8075633,09:02:08.807,-5.766,1.462,-2.591,4.3656,0.435,2.1909,NONE,779
1770512528.8144188,09:02:08.814,-5.539,0.546,-4.639,4.3656,0.3216,2.3932,NONE,780
1770512528.821354,09:02:08.821,-5.926,0.261,-5.568,4.3656,0.314,2.359,NONE,781
1770512528.828434,09:02:08.828,-6.111,0.318,-6.436,4.3656,0.5656,2.1518,NONE,782
1770512528.83555,09:02:08.835,-7.379,0.553,-6.733,4.3656,1.0736,1.8622,NONE,783
1770512528.8425398,09:02:08.842,-9.152,1.357,-5.905,4.3656,1.5528,1.501,NONE,784
1770512528.8496878,09:02:08.849,-12.678,2.938,-3.091,4.3656,1.868,1.2259,NONE,785
1770512528.8565536,09:02:08.856,-15.164,3.051,-0.251,4.3656,1.7436,1.1457,NONE,786
1770512528.8634639,09:02:08.863,-16.614,2.763,1.266,4.3656,1.0299,1.0328,NONE,787
1770512528.871362,09:02:08.871,-11.073,2.393,-0.924,4.3656,-0.0726,0.5613,NONE,788
1770512528.8781312,09:02:08.878,-13.733,1.677,0.022,4.3656,-0.6218,0.8467,NONE,789
1770512528.884909,09:02:08.884,-11.035,0.514,-3.003,4.3656,-0.8647,1.0316,NONE,790
1770512528.8923721,09:02:08.892,-7.857,3.256,-4.761,4.3656,-1.0925,0.9181,NONE,791
1770512528.8989124,09:02:08.898,-5.828,0.818,-4.843,4.3656,-0.8198,0.9153,NONE,792
1770512528.905573,09:02:08.905,-5.529,0.531,-4.819,4.3656,-0.4191,1.0611,NONE,793
1770512528.913175,09:02:08.913,-6.048,0.567,-5.625,4.3656,-0.1609,1.0292,NONE,794
1770512528.9195094,09:02:08.919,-7.226,1.187,-5.036,4.3656,-0.0538,0.9527,NONE,795
1770512528.926442,09:02:08.926,-8.369,0.802,-4.249,4.3656,0.0337,0.9029,NONE,796
1770512528.9334452,09:02:08.933,-9.006,1.156,-3.905,4.3656,0.0566,0.7986,NONE,797
1770512528.940393,09:02:08.940,-9.408,1.749,-2.704,4.3656,0.0208,0.6839,NONE,798
1770512528.9474423,09:02:08.947,-9.216,2.366,-1.775,4.3656,0.0175,0.607,NONE,799
1770512528.9543602,09:02:08.954,-9.805,2.491,-0.967,4.3656,0.0898,0.5137,NONE,800
1770512528.961361,09:02:08.961,-9.503,3.433,0.5,4.3656,0.2048,0.3315,NONE,801
1770512528.9682798,09:02:08.968,-8.099,4.555,1.771,4.3656,0.4843,0.1994,NONE,802
1770512528.9754524,09:02:08.975,-7.635,5.07,2.431,4.3656,0.837,0.221,NONE,803
1770512528.9822662,09:02:08.982,-8.094,4.07,1.885,4.2102,1.2576,0.2777,NONE,804
1770512528.9899845,09:02:08.989,-7.623,2.924,0.089,4.0092,1.6535,0.4465,NONE,805
1770512528.9974704,09:02:08.997,-7.666,1.699,-1.424,3.8532,1.8159,0.6841,NONE,806
1770512529.00439,09:02:09.004,-11.575,0.452,0.313,3.776,1.928,1.1102,NONE,807
1770512529.0115278,09:02:09.011,-6.113,0.713,-3.859,3.7009,1.9674,1.2469,NONE,808
1770512529.0184336,09:02:09.018,-9.097,0.77,-2.127,3.5906,1.6987,1.1567,NONE,809
1770512529.0255668,09:02:09.025,-8.86,1.974,-2.18,3.5013,1.7479,1.1494,NONE,810
1770512529.0322938,09:02:09.032,-9.877,2.531,-0.88,3.2607,1.7657,0.9222,NONE,811
1770512529.0393777,09:02:09.039,-11.07,3.45,0.361,2.9741,1.681,0.7056,NONE,812
1770512529.046509,09:02:09.046,-11.496,4.213,0.962,2.6448,1.5264,0.473,NONE,813
1770512529.053455,09:02:09.053,-11.453,4.546,1.108,2.3081,1.36,0.2821,NONE,814
1770512529.0604289,09:02:09.060,-10.637,4.977,1.139,1.9792,1.2574,0.18,NONE,815
1770512529.0674431,09:02:09.067,-10.415,4.811,1.17,1.621,1.1707,0.0553,NONE,816
1770512529.0745542,09:02:09.074,-9.441,4.57,0.581,1.303,1.1242,-0.0617,NONE,817
1770512529.081546,09:02:09.081,-8.422,3.929,-0.457,1.0263,1.173,-0.053,NONE,818
1770512529.0884514,09:02:09.088,-8.051,3.017,-1.321,0.8224,1.234,0.083,NONE,819
1770512529.095359,09:02:09.095,-7.053,2.29,-3.206,0.6844,1.2533,0.3269,NONE,820
1770512529.1025918,09:02:09.102,-8.673,0.603,-4.06,0.5749,1.1417,0.4798,NONE,821
1770512529.109682,09:02:09.109,-8.886,-0.215,-5.163,0.4694,1.0307,0.6776,NONE,822
1770512529.1164906,09:02:09.116,-9.4,-1.203,-5.821,0.5084,0.8191,0.7298,NONE,823
1770512529.1236784,09:02:09.123,-9.764,-1.086,-5.678,0.4995,0.6376,0.6779,NONE,824
1770512529.1306381,09:02:09.130,-10.338,-0.493,-4.754,0.4303,0.4799,0.6027,NONE,825
1770512529.1373641,09:02:09.137,-11.042,0.407,-3.455,0.2916,0.2882,0.5112,NONE,826
1770512529.1445167,09:02:09.144,-11.626,1.416,-2.105,0.0494,0.0469,0.3765,NONE,827
1770512529.1517782,09:02:09.151,-11.664,2.385,-1.079,-0.2669,-0.1791,0.2406,NONE,828
1770512529.158711,09:02:09.158,-11.303,3.132,-0.084,-0.6508,-0.3958,0.1059,NONE,829
1770512529.1654997,09:02:09.165,-10.903,4.046,0.94,-1.1101,-0.6122,0.1078,NONE,830
1770512529.1727204,09:02:09.172,-10.975,4.967,2.113,-1.5703,-0.9297,0.1649,NONE,831
1770512529.179878,09:02:09.179,-11.405,5.17,3.063,-2.0495,-1.2569,0.0751,NONE,832
1770512529.1866484,09:02:09.186,-9.752,6.304,2.144,-2.4874,-1.3912,-0.1406,NONE,833
1770512529.1937926,09:02:09.193,-15.502,4.527,4.539,-3.4199,-2.0173,-0.6932,NONE,834
1770512529.200802,09:02:09.200,-4.146,4.711,-5.936,-2.9789,-0.3624,0.4445,NONE,835
1770512529.2077239,09:02:09.207,-8.046,-0.823,-8.381,-2.934,-0.2942,0.4763,NONE,836
1770512529.214815,09:02:09.214,-8.597,-3.144,-10.867,-2.774,-0.3465,0.5794,NONE,837
1770512529.2217631,09:02:09.221,-9.845,-4.749,-10.733,-2.4481,-0.4932,0.6138,NONE,838
1770512529.228677,09:02:09.228,-10.74,-3.649,-8.293,-2.2256,-0.7959,0.4898,NONE,839
1770512529.2358935,09:02:09.235,-10.999,-1.491,-4.816,-2.2342,-0.9911,0.1681,NONE,840
1770512529.242891,09:02:09.242,-11.458,0.696,-1.67,-2.5631,-1.2232,-0.0897,NONE,841
1770512529.2496164,09:02:09.249,-12.339,2.094,1.498,-2.9914,-1.4426,-0.3837,NONE,842
1770512529.2568307,09:02:09.256,-12.65,4.584,4.319,-3.5505,-1.8,-0.6892,NONE,843
1770512529.263823,09:02:09.263,-11.944,7.034,6.41,-4.2987,-2.2078,-0.9871,NONE,844
1770512529.2707262,09:02:09.270,-10.183,9.209,6.85,-4.3657,-2.4961,-1.1772,NONE,845
1770512529.2777686,09:02:09.277,-9.03,10.08,6.017,-4.3657,-2.3724,-1.4095,NONE,846
1770512529.2845235,09:02:09.284,-2.579,9.795,0.488,-4.3657,-1.7978,-1.6723,NONE,847
1770512529.2916915,09:02:09.291,-1.526,10.133,-4.039,-4.3657,-0.6175,-0.965,NONE,848
1770512529.2986677,09:02:09.298,-4.168,3.046,-10.413,-4.3657,0.9065,-0.1872,NONE,849
1770512529.3056426,09:02:09.305,-4.989,-2.519,-14.525,-4.3657,1.0844,0.1356,NONE,850
1770512529.3125813,09:02:09.312,-7.147,-5.457,-13.999,-4.3657,1.2698,0.7079,NONE,851
1770512529.3199775,09:02:09.319,-7.623,-6.307,-13.293,-4.3657,0.3553,0.1689,NONE,852
1770512529.3267744,09:02:09.326,-8.527,-4.553,-9.551,-4.0466,-0.0581,0.0296,NONE,853
1770512529.333767,09:02:09.333,-9.544,-1.285,-4.862,-3.8347,-0.2041,-0.0584,NONE,854
1770512529.3407142,09:02:09.340,-10.271,1.486,-0.62,-3.9267,-0.2906,-0.3589,NONE,855
1770512529.3477798,09:02:09.347,-10.685,4.285,2.931,-4.317,-0.3248,-0.7357,NONE,856
1770512529.3546326,09:02:09.354,-11.755,6.548,5.752,-4.3657,-0.4498,-1.08,NONE,857
1770512529.3616788,09:02:09.361,-11.539,8.214,7.058,-4.3657,-0.6014,-1.3807,NONE,858
1770512529.3686812,09:02:09.368,-7.85,8.812,4.268,-4.3657,-0.9826,-2.1617,NONE,859
1770512529.3755808,09:02:09.375,-8.637,8.86,4.426,-4.3657,-0.6387,-2.299,NONE,860
1770512529.3828144,09:02:09.382,-3.146,12.245,-3.153,-4.3657,-0.5584,-2.5658,NONE,861
1770512529.3897476,09:02:09.389,-6.783,4.221,-5.39,-4.3657,0.0518,-2.7196,NONE,862
1770512529.396716,09:02:09.396,-2.653,1.725,-10.362,-4.3657,0.7288,-2.1557,NONE,863
1770512529.4036813,09:02:09.403,-2.634,-0.756,-12.805,-4.3657,1.1109,-1.3495,NONE,864
1770512529.4108548,09:02:09.410,-5.702,-2.51,-11.676,-4.3657,0.9507,-0.8692,NONE,865
1770512529.417662,09:02:09.417,-7.099,-1.847,-9.393,-4.3657,0.726,-0.321,NONE,866
1770512529.424784,09:02:09.424,-10.673,-0.526,-5.644,-4.3657,0.4543,-0.1641,NONE,867
1770512529.4315646,09:02:09.431,-12.717,1.955,-1.928,-4.3657,0.1581,-0.2801,NONE,868
1770512529.43872,09:02:09.438,-13.556,4.094,0.373,-4.3657,-0.117,-0.5877,NONE,869
1770512529.4459658,09:02:09.445,-13.858,5.434,1.321,-4.3657,-0.2178,-0.9998,NONE,870
1770512529.4529054,09:02:09.452,-14.04,5.785,1.278,-4.3657,-0.3547,-1.4957,NONE,871
1770512529.4600194,09:02:09.460,-13.336,4.421,-0.565,-4.3657,-0.4968,-1.9989,NONE,872
1770512529.4669075,09:02:09.466,-11.982,1.122,-3.909,-4.3657,-0.8276,-2.3899,NONE,873
1770512529.4739063,09:02:09.473,-8.888,-0.988,-7.185,-4.3657,-1.0516,-2.3752,NONE,874
1770512529.480761,09:02:09.480,-6.864,-2.622,-8.498,-4.3657,-1.194,-1.9269,NONE,875
1770512529.4878056,09:02:09.487,-5.056,-2.323,-7.608,-4.3657,-1.1651,-1.2862,NONE,876
1770512529.4948554,09:02:09.494,-4.699,-0.414,-4.694,-4.3657,-1.0547,-0.7171,NONE,877
1770512529.5017915,09:02:09.501,-5.584,2.84,-1.168,-4.3657,-0.8172,-0.2407,NONE,878
1770512529.5087194,09:02:09.508,-7.333,4.933,1.534,-4.3657,-0.6303,0.0085,NONE,879
1770512529.5168219,09:02:09.516,-6.726,5.326,0.5,-4.3657,-0.5368,0.2025,NONE,880
1770512529.5236168,09:02:09.523,-9.956,2.967,0.105,-4.3657,-0.5051,0.3481,NONE,881
1770512529.5307543,09:02:09.530,-10.279,1.108,-2.177,-4.3657,-0.2554,0.6955,NONE,882
1770512529.5378492,09:02:09.537,-12.559,-1.598,-3.84,-4.3657,-0.4899,0.4165,NONE,883
1770512529.544963,09:02:09.544,-13.628,-3.575,-4.725,-4.3657,-0.5493,0.1777,NONE,884
1770512529.5519958,09:02:09.551,-13.556,-3.273,-4.182,-4.3657,-0.6021,-0.0302,NONE,885
1770512529.559036,09:02:09.559,-13.468,-1.644,-1.895,-4.1929,-0.7087,-0.2904,NONE,886
1770512529.5660737,09:02:09.566,-11.568,-0.388,-1.194,-4.091,-0.7922,-0.4842,NONE,887
1770512529.5729182,09:02:09.572,-9.678,0.433,-1.749,-3.952,-0.8108,-0.3475,NONE,888
1770512529.5799341,09:02:09.579,-8.606,1.125,-1.235,-3.7695,-0.676,-0.0533,NONE,889
1770512529.5871012,09:02:09.587,-7.302,1.555,-1.684,-3.7253,-0.4875,0.2425,NONE,890
1770512529.5938044,09:02:09.593,-11.649,-0.538,-1.146,-3.7421,-0.6843,0.1716,NONE,891
1770512529.600975,09:02:09.600,-10.767,-0.725,-1.39,-3.6748,-0.5056,0.0993,NONE,892
1770512529.6085482,09:02:09.608,-10.29,-1.823,-2.065,-3.598,-0.506,-0.1637,NONE,893
1770512529.614784,09:02:09.614,-9.087,-3.046,-3.311,-3.3817,-0.3379,-0.2962,NONE,894
1770512529.6219735,09:02:09.621,-8.991,-4.486,-4.331,-3.0036,-0.2242,-0.2682,NONE,895
1770512529.6289175,09:02:09.628,-7.651,-4.477,-4.744,-2.6085,-0.1447,-0.2567,NONE,896
1770512529.636277,09:02:09.636,-8.271,-3.058,-3.347,-2.3325,0.0061,-0.2435,NONE,897
1770512529.6443822,09:02:09.644,-9.228,-0.4,-0.732,-2.2628,0.2401,-0.2188,NONE,898
1770512529.652246,09:02:09.652,-9.118,-0.234,-0.773,-2.3341,0.2353,-0.2197,NONE,899
1770512529.6597588,09:02:09.659,-11.133,-1.038,-1.256,-2.331,0.1244,-0.1363,NONE,900
1770512529.6661294,09:02:09.666,-12.295,-1.381,-0.763,-2.2992,0.0063,-0.2553,NONE,901
1770512529.673453,09:02:09.673,-11.994,-3.173,-2.0,-2.191,-0.1092,-0.3944,NONE,902
1770512529.6801145,09:02:09.680,-10.491,-4.811,-3.797,-1.8486,-0.1372,-0.4602,NONE,903
1770512529.6866746,09:02:09.686,-9.709,-5.027,-3.476,-1.5519,0.0262,-0.4735,NONE,904
1770512529.693768,09:02:09.693,-8.565,-4.491,-3.582,-1.311,0.1226,-0.4943,NONE,905
1770512529.7008204,09:02:09.700,-7.817,-3.383,-2.931,-1.0894,0.2811,-0.4594,NONE,906
1770512529.7081234,09:02:09.708,-6.931,-2.251,-2.058,-0.9383,0.5111,-0.3858,NONE,907
1770512529.7147515,09:02:09.714,-7.273,-2.309,-1.797,-0.884,0.6888,-0.3307,NONE,908
1770512529.7217367,09:02:09.721,-7.587,-3.481,-2.711,-0.7741,0.8207,-0.3246,NONE,909
1770512529.729412,09:02:09.729,-7.951,-4.725,-3.668,-0.5312,0.9114,-0.334,NONE,910
1770512529.7358127,09:02:09.735,-10.63,-6.273,-3.613,-0.314,1.0102,-0.4278,NONE,911
1770512529.7428443,09:02:09.742,-7.855,-3.766,-3.304,-0.1932,1.1976,-0.3179,NONE,912
1770512529.7502851,09:02:09.750,-9.08,-2.816,-2.196,-0.1038,1.1155,-0.3577,NONE,913
1770512529.756719,09:02:09.756,-10.113,-3.122,-2.22,0.0414,1.0332,-0.3135,NONE,914
1770512529.7642477,09:02:09.764,-11.116,-3.027,-2.103,0.1402,0.7759,-0.2435,NONE,915
1770512529.7719371,09:02:09.771,-11.52,-2.696,-1.689,0.2469,0.4718,-0.2582,NONE,916
1770512529.7789228,09:02:09.778,-11.42,-2.658,-1.799,0.3657,0.2799,-0.2722,NONE,917
1770512529.7856658,09:02:09.785,-11.381,-3.345,-2.39,0.551,0.0987,-0.2455,NONE,918
1770512529.7928724,09:02:09.792,-11.082,-3.582,-3.146,0.7822,-0.0425,-0.1693,NONE,919
1770512529.8000984,09:02:09.800,-11.145,-3.185,-2.646,0.9871,-0.2157,-0.109,NONE,920
1770512529.8069353,09:02:09.806,-10.661,-2.641,-1.89,1.1033,-0.3355,-0.0857,NONE,921
1770512529.8138201,09:02:09.813,-9.917,-2.993,-2.259,1.2189,-0.3102,-0.1418,NONE,922
1770512529.8210356,09:02:09.821,-9.173,-3.744,-2.828,1.3796,-0.1927,-0.2134,NONE,923
1770512529.827893,09:02:09.827,-8.563,-4.522,-3.469,1.558,-0.0149,-0.2794,NONE,924
1770512529.8347049,09:02:09.834,-8.448,-4.855,-3.742,1.7677,0.1647,-0.4162,NONE,925
1770512529.842051,09:02:09.842,-7.618,-4.515,-4.338,1.9806,0.3516,-0.4756,NONE,926
1770512529.8486853,09:02:09.848,-7.135,-3.577,-4.244,2.2659,0.6308,-0.2939,NONE,927
1770512529.8558733,09:02:09.855,-10.738,-3.244,-1.967,2.4468,0.8066,0.0173,NONE,928
1770512529.8627558,09:02:09.862,-7.35,-2.615,-3.644,2.5715,0.8725,-0.121,NONE,929
1770512529.869529,09:02:09.869,-8.13,-2.431,-3.921,2.828,1.0789,0.033,NONE,930
1770512529.8765383,09:02:09.876,-10.728,-2.921,-3.285,3.025,1.2047,0.1532,NONE,931
1770512529.8837345,09:02:09.883,-11.582,-2.397,-3.333,3.0824,1.2052,0.0626,NONE,932
1770512529.8906693,09:02:09.890,-11.939,-0.074,-2.187,3.1904,1.2307,0.1936,NONE,933
1770512529.8973799,09:02:09.897,-12.815,1.852,0.022,3.0631,1.0804,0.2225,NONE,934
1770512529.9047778,09:02:09.904,-12.944,1.979,0.833,2.8381,0.9515,0.2834,NONE,935
1770512529.9113574,09:02:09.911,-12.812,0.493,-0.199,2.7651,0.6985,0.4311,NONE,936
1770512529.9185781,09:02:09.918,-12.956,-0.656,-0.981,2.8094,0.3515,0.6166,NONE,937
1770512529.9258478,09:02:09.925,-12.018,-1.005,-1.838,2.8699,-0.052,0.8372,NONE,938
1770512529.9327927,09:02:09.932,-10.645,-1.639,-1.818,3.031,-0.3942,1.0231,NONE,939
1770512529.939685,09:02:09.939,-8.431,-1.878,-3.311,3.1802,-0.6791,1.1281,NONE,940
1770512529.9466255,09:02:09.946,-9.477,-1.89,-1.543,3.1809,-1.0788,1.1928,NONE,941
1770512529.9536464,09:02:09.953,-8.537,-1.945,-1.696,3.239,-1.247,0.9174,NONE,942
1770512529.9605534,09:02:09.960,-6.659,-3.689,-4.266,3.533,-0.8918,0.8367,NONE,943
1770512529.967793,09:02:09.967,-6.07,-4.881,-6.158,3.9868,-0.3972,0.8825,NONE,944
1770512529.974593,09:02:09.974,-5.886,-5.252,-7.168,4.3656,0.1158,0.9012,NONE,945
1770512529.9815164,09:02:09.981,-6.845,-5.19,-7.405,4.3656,0.3291,0.8332,NONE,946
1770512529.9884813,09:02:09.988,-6.563,-3.558,-6.938,4.3656,0.491,0.7124,NONE,947
1770512529.9954498,09:02:09.995,-6.927,-1.586,-6.077,4.3656,0.7365,0.5986,NONE,948
1770512530.0021951,09:02:10.002,-8.252,0.156,-4.941,4.3656,0.9907,0.4466,NONE,949
1770512530.0095356,09:02:10.009,-8.917,1.948,-3.625,4.3656,1.2566,0.3395,NONE,950
1770512530.0163827,09:02:10.016,-9.726,2.988,-2.194,4.3656,1.4354,0.3071,NONE,951
1770512530.0234728,09:02:10.023,-10.006,3.402,-1.007,4.3656,1.4569,0.2871,NONE,952
1770512530.0305986,09:02:10.030,-10.078,3.51,-0.457,4.3656,1.2441,0.3276,NONE,953
1770512530.037424,09:02:10.037,-9.264,3.536,0.098,4.3656,0.9643,0.4036,NONE,954
1770512530.0444546,09:02:10.044,-8.08,3.323,-0.191,4.3656,0.8398,0.5798,NONE,955
1770512530.0513284,09:02:10.051,-7.486,2.323,-1.29,4.3656,0.7608,0.8557,NONE,956
1770512530.0583513,09:02:10.058,-8.326,1.519,-1.651,4.3656,0.542,0.9605,NONE,957
1770512530.0654948,09:02:10.065,-8.549,1.378,-1.634,4.3656,0.4289,1.0216,NONE,958
1770512530.0726335,09:02:10.072,-8.92,1.036,-1.907,4.3656,0.3836,0.9629,NONE,959
1770512530.0795593,09:02:10.079,-9.599,0.926,-2.232,4.3656,0.4908,0.8462,NONE,960
1770512530.087558,09:02:10.087,-10.563,1.794,-1.452,4.3656,0.6483,0.6731,NONE,961
1770512530.094823,09:02:10.094,-11.212,2.539,-0.01,4.3656,0.833,0.4547,NONE,962
1770512530.1016448,09:02:10.101,-11.554,2.486,1.084,4.2911,0.7675,0.1576,NONE,963
1770512530.1087065,09:02:10.108,-11.559,2.187,1.017,4.0497,0.6616,-0.0613,NONE,964
1770512530.115569,09:02:10.115,-10.881,2.419,1.304,3.8201,0.5464,-0.1911,NONE,965
1770512530.1223733,09:02:10.122,-9.915,2.443,1.567,3.5646,0.4608,-0.2066,NONE,966
1770512530.1298625,09:02:10.129,-9.171,1.311,0.34,3.4191,0.3954,-0.0762,NONE,967
1770512530.1365347,09:02:10.136,-9.252,0.0,-1.29,3.4222,0.2611,0.0557,NONE,968
1770512530.1434867,09:02:10.143,-8.747,-0.352,-2.177,3.4592,0.1214,0.1945,NONE,969
1770512530.1507568,09:02:10.150,-7.699,-0.084,-2.414,3.4876,-0.023,0.2827,NONE,970
1770512530.1579137,09:02:10.157,-6.3,-0.309,-3.359,3.5598,0.0269,0.419,NONE,971
1770512530.164708,09:02:10.164,-6.288,-0.548,-4.003,3.6904,0.1404,0.5168,NONE,972
1770512530.1716805,09:02:10.171,-6.754,-0.455,-4.031,3.7387,0.257,0.5065,NONE,973
1770512530.1794708,09:02:10.179,-7.161,-0.079,-3.625,3.7859,0.3505,0.4551,NONE,974
1770512530.1854312,09:02:10.185,-7.685,0.356,-3.338,3.8073,0.4742,0.4437,NONE,975
1770512530.1927488,09:02:10.192,-9.245,0.177,-2.46,3.767,0.4784,0.3312,NONE,976
1770512530.1999106,09:02:10.199,-9.932,1.046,-1.024,3.6969,0.4052,0.2591,NONE,977
1770512530.206548,09:02:10.206,-10.939,1.593,0.928,3.4876,0.1931,0.095,NONE,978
1770512530.2138357,09:02:10.213,-11.092,2.091,1.802,3.1975,0.0506,-0.0512,NONE,979
1770512530.2218585,09:02:10.221,-10.599,2.866,2.204,2.8282,-0.0364,-0.0556,NONE,980
1770512530.2292464,09:02:10.229,-10.424,2.893,2.311,2.4722,-0.1239,-0.138,NONE,981
1770512530.235451,09:02:10.235,-9.604,2.68,1.577,2.113,-0.0632,-0.1455,NONE,982
1770512530.2423623,09:02:10.242,-9.29,1.96,0.632,1.8297,0.0181,-0.1279,NONE,983
1770512530.2498422,09:02:10.249,-8.91,1.641,-0.089,1.6109,0.0739,-0.1199,NONE,984
1770512530.2565181,09:02:10.256,-8.331,1.751,-0.136,1.3911,0.1661,-0.0465,NONE,985
1770512530.2635198,09:02:10.263,-7.84,1.811,-0.081,1.1598,0.2635,0.1057,NONE,986
1770512530.2706418,09:02:10.270,-7.805,1.373,-0.711,0.9705,0.3792,0.332,NONE,987
1770512530.2775097,09:02:10.277,-7.647,1.256,-1.172,0.8068,0.4839,0.5798,NONE,988
1770512530.2845893,09:02:10.284,-7.814,1.184,-1.038,0.6127,0.597,0.7526,NONE,989
1770512530.2916691,09:02:10.291,-8.568,1.165,-0.706,0.3416,0.7007,0.979,NONE,990
1770512530.298419,09:02:10.298,-9.994,0.766,-0.469,0.1227,0.648,1.0932,NONE,991
1770512530.306032,09:02:10.306,-11.458,1.043,0.065,-0.1394,0.4572,1.07,NONE,992
1770512530.3127234,09:02:10.312,-12.563,1.775,1.105,-0.4904,0.2527,0.9417,NONE,993
1770512530.3196127,09:02:10.319,-12.973,2.256,1.586,-0.8479,0.0943,0.6924,NONE,994
1770512530.32668,09:02:10.326,-12.752,2.065,1.041,-1.1401,-0.0133,0.3988,NONE,995
1770512530.3338618,09:02:10.333,-11.752,1.945,-0.613,-1.3607,0.0296,0.1732,NONE,996
1770512530.3407075,09:02:10.340,-10.853,0.864,-2.419,-1.4436,0.1551,0.0901,NONE,997
1770512530.3477788,09:02:10.347,-9.544,-0.694,-5.197,-1.3596,0.381,0.1769,NONE,998
1770512530.354986,09:02:10.354,-10.037,-2.007,-6.142,-1.123,0.4628,0.0705,NONE,999
1770512530.36268,09:02:10.362,-10.104,-2.495,-6.613,-0.8904,0.3868,-0.0659,NONE,1000
1770512530.3688934,09:02:10.368,-10.326,-2.168,-5.728,-0.6678,0.2142,-0.1749,NONE,1001
1770512530.3761106,09:02:10.376,-10.456,-1.44,-4.316,-0.5331,-0.0322,-0.3768,NONE,1002
1770512530.382985,09:02:10.382,-9.539,-0.708,-3.527,-0.4362,-0.2152,-0.483,NONE,1003
1770512530.3900018,09:02:10.390,-8.941,-0.057,-2.893,-0.3894,-0.2442,-0.5232,NONE,1004
1770512530.3969183,09:02:10.396,-8.23,0.445,-2.35,-0.3689,-0.2378,-0.5033,NONE,1005
1770512530.4037795,09:02:10.403,-8.341,0.445,-1.964,-0.3996,-0.2236,-0.4684,NONE,1006
1770512530.4107046,09:02:10.410,-8.589,0.177,-1.665,-0.4322,-0.2321,-0.4823,NONE,1007
1770512530.419934,09:02:10.419,-8.742,0.203,-1.467,-0.4803,-0.2543,-0.5299,NONE,1008
1770512530.4274774,09:02:10.427,-8.668,0.366,-1.127,-0.5375,-0.2438,-0.6069,NONE,1009
1770512530.4338875,09:02:10.433,-8.415,0.33,-1.223,-0.5614,-0.1792,-0.6879,NONE,1010
1770512530.4412951,09:02:10.441,-8.171,0.1,-1.632,-0.5497,-0.0545,-0.7474,NONE,1011
1770512530.448111,09:02:10.448,-8.034,-0.246,-1.912,-0.5088,0.0498,-0.739,NONE,1012
1770512530.4549923,09:02:10.454,-8.266,-0.761,-2.309,-0.4279,0.0843,-0.6951,NONE,1013
1770512530.4617887,09:02:10.461,-8.336,-0.991,-2.486,-0.3082,0.0509,-0.6081,NONE,1014
1770512530.4690063,09:02:10.469,-8.558,-0.971,-2.113,-0.2046,-0.0252,-0.5195,NONE,1015
1770512530.4759092,09:02:10.475,-8.589,-0.565,-1.22,-0.1605,-0.0782,-0.471,NONE,1016
1770512530.4828746,09:02:10.482,-8.372,0.022,-0.486,-0.2022,-0.0742,-0.4429,NONE,1017
1770512530.4896626,09:02:10.489,-8.666,0.127,0.029,-0.296,-0.0369,-0.3957,NONE,1018
1770512530.4966214,09:02:10.496,-8.939,-0.031,0.428,-0.402,-0.0533,-0.3653,NONE,1019
1770512530.5037248,09:02:10.503,-9.054,-0.22,0.347,-0.5109,-0.1057,-0.3272,NONE,1020
1770512530.5105412,09:02:10.510,-9.037,-0.479,0.218,-0.5805,-0.1347,-0.2813,NONE,1021
1770512530.5183167,09:02:10.518,-9.027,-1.017,-0.486,-0.603,-0.1488,-0.2122,NONE,1022
1770512530.5250564,09:02:10.525,-9.03,-1.364,-0.916,-0.6091,-0.1569,-0.1665,NONE,1023
1770512530.5317695,09:02:10.531,-9.508,-1.589,-1.27,-0.5818,-0.1953,-0.1402,NONE,1024
1770512530.5390263,09:02:10.539,-9.762,-1.802,-1.495,-0.5372,-0.2197,-0.1043,NONE,1025
1770512530.5463417,09:02:10.546,-10.264,-1.998,-1.656,-0.4728,-0.3087,-0.097,NONE,1026
1770512530.5530632,09:02:10.553,-10.439,-2.038,-1.869,-0.3964,-0.3801,-0.1111,NONE,1027
1770512530.5599055,09:02:10.559,-10.353,-1.96,-1.72,-0.3123,-0.4366,-0.137,NONE,1028
1770512530.567013,09:02:10.567,-10.125,-1.644,-1.605,-0.2637,-0.4265,-0.1831,NONE,1029
1770512530.573775,09:02:10.573,-9.826,-1.455,-1.56,-0.2403,-0.3704,-0.2242,NONE,1030
1770512530.580817,09:02:10.580,-9.939,-1.261,-1.158,-0.2193,-0.3102,-0.2814,NONE,1031
1770512530.5877483,09:02:10.587,-9.733,-1.046,-0.959,-0.2312,-0.2918,-0.3573,NONE,1032
1770512530.5946746,09:02:10.594,-9.951,-1.122,-0.737,-0.2344,-0.2761,-0.4198,NONE,1033
1770512530.6019697,09:02:10.601,-9.975,-1.098,-0.636,-0.2101,-0.3063,-0.4582,NONE,1034
1770512530.6091025,09:02:10.609,-9.592,-0.971,-0.581,-0.2146,-0.2863,-0.4338,NONE,1035
1770512530.6163993,09:02:10.616,-9.377,-0.794,-0.471,-0.2294,-0.2717,-0.3942,NONE,1036
1770512530.6230423,09:02:10.623,-9.109,-0.591,-0.356,-0.2685,-0.2374,-0.3067,NONE,1037
1770512530.6301234,09:02:10.630,-9.228,-0.684,-0.347,-0.2999,-0.2088,-0.2313,NONE,1038
1770512530.63707,09:02:10.637,-9.173,-0.773,-0.495,-0.3287,-0.2342,-0.1548,NONE,1039
1770512530.6443715,09:02:10.644,-9.03,-0.758,-0.873,-0.3311,-0.2393,-0.0939,NONE,1040
1770512530.6514606,09:02:10.651,-9.104,-0.821,-1.067,-0.321,-0.2148,-0.0209,NONE,1041
1770512530.6577594,09:02:10.657,-9.408,-0.601,-1.136,-0.3108,-0.2062,0.0184,NONE,1042
1770512530.6646733,09:02:10.664,-9.532,-0.498,-1.141,-0.3058,-0.1685,0.0601,NONE,1043
1770512530.6717365,09:02:10.671,-9.585,-0.474,-1.555,-0.2934,-0.099,0.0946,NONE,1044
1770512530.6788175,09:02:10.678,-9.8,-0.479,-1.395,-0.2822,-0.0218,0.1156,NONE,1045
1770512530.6858306,09:02:10.685,-10.286,-0.56,-1.103,-0.2887,-0.022,0.1066,NONE,1046
1770512530.692737,09:02:10.692,-10.566,-0.605,-1.046,-0.3014,-0.0822,0.0866,NONE,1047
1770512530.6998208,09:02:10.699,-10.664,-0.679,-0.933,-0.3039,-0.178,0.0822,NONE,1048
1770512530.7066934,09:02:10.706,-10.336,-0.548,-0.902,-0.3317,-0.2537,0.071,NONE,1049
1770512530.7137973,09:02:10.713,-9.637,-0.5,-0.959,-0.3537,-0.2619,0.1007,NONE,1050
1770512530.7207568,09:02:10.720,-8.735,-0.167,-0.931,-0.4076,-0.1965,0.1609,NONE,1051
1770512530.7276752,09:02:10.727,-8.257,-0.05,-0.624,-0.4756,-0.1254,0.2342,NONE,1052
1770512530.7346854,09:02:10.734,-8.147,-0.191,-0.493,-0.5585,-0.0705,0.3339,NONE,1053
1770512530.7418776,09:02:10.741,-8.324,-0.392,-0.536,-0.6126,-0.0935,0.4594,NONE,1054
1770512530.748834,09:02:10.748,-7.618,-0.38,-0.742,-0.6354,-0.073,0.6117,NONE,1055
1770512530.75558,09:02:10.755,-7.147,-0.333,-0.622,-0.6749,-0.0148,0.807,NONE,1056
1770512530.7624934,09:02:10.762,6.97,-0.366,-0.538,-0.7196,0.0505,1.0023,NONE,1057
1770512530.7694967,09:02:10.769,-7.065,-0.392,-0.488,-0.76,0.0942,1.2514,NONE,1058
1770512530.776602,09:02:10.776,-7.443,-0.488,-0.34,-0.8022,0.0492,1.434,NONE,1059
1770512530.7835517,09:02:10.783,-8.171,-0.591,-0.479,-0.8444,0.0064,1.5645,NONE,1060
1770512530.7906477,09:02:10.790,-9.173,-0.72,-0.483,-0.8677,-0.048,1.5958,NONE,1061
1770512530.7978303,09:02:10.797,-9.951,-0.646,-0.208,-0.8924,-0.0771,1.5477,NONE,1062
1770512530.8047686,09:02:10.804,-10.501,-0.349,0.225,-0.9431,-0.0838,1.421,NONE,1063
1770512530.811577,09:02:10.811,-10.869,-0.033,0.727,-1.0143,-0.1154,1.2774,NONE,1064
1770512530.8185885,09:02:10.818,-10.807,0.084,0.751,-1.0769,-0.2022,1.1944,NONE,1065
1770512530.8255818,09:02:10.825,-9.762,0.488,0.304,-1.145,-0.2297,1.1611,NONE,1066
1770512530.8327181,09:02:10.832,-9.422,-0.433,-0.849,-1.164,-0.1655,1.2231,NONE,1067
1770512530.8399048,09:02:10.839,-9.336,-1.158,-1.763,-1.0856,-0.0679,1.344,NONE,1068
1770512530.8466744,09:02:10.846,-9.362,-1.804,-2.17,-0.9164,-0.1652,1.4028,NONE,1069
1770512530.8536386,09:02:10.853,9.439,-2.211,-2.488,-0.7538,-0.2469,1.4168,NONE,1070
1770512530.8606353,09:02:10.860,-9.585,-2.204,-2.584,-0.5971,-0.302,1.4123,NONE,1071
1770512530.867928,09:02:10.867,-9.422,-1.967,-2.395,-0.4301,-0.322,1.3924,NONE,1072
1770512530.8747396,09:02:10.874,-9.582,-1.505,-2.015,-0.3063,-0.2902,1.3623,NONE,1073
1770512530.8820348,09:02:10.882,-10.594,-1.359,-1.503,-0.215,-0.2746,1.2296,NONE,1074
1770512530.888779,09:02:10.888,-10.494,-0.921,-1.189,-0.1312,-0.201,1.0656,NONE,1075
1770512530.8957982,09:02:10.895,-11.094,-0.782,-0.962,-0.0711,-0.1589,0.8415,NONE,1076
1770512530.9026856,09:02:10.902,-11.343,-0.51,-0.536,-0.0301,-0.099,0.584,NONE,1077
1770512530.9097595,09:02:10.909,-11.515,-0.187,-0.268,-0.0143,-0.0646,0.2906,NONE,1078
1770512530.9168303,09:02:10.916,-11.52,0.067,0.031,-0.0055,-0.0004,0.0344,NONE,1079
1770512530.9235816,09:02:10.923,-11.441,0.213,0.206,-0.0063,0.0028,-0.2229,NONE,1080
1770512530.9307773,09:02:10.930,-10.597,0.565,0.184,-0.0092,0.0245,-0.3798,NONE,1081
1770512530.9377446,09:02:10.937,-10.073,0.794,0.189,-0.0109,0.0528,-0.4596,NONE,1082
1770512530.9445384,09:02:10.944,-9.412,1.237,0.337,-0.0481,0.0821,-0.4706,NONE,1083
1770512530.951615,09:02:10.951,-8.893,1.414,0.328,-0.0945,0.1267,-0.4205,NONE,1084
1770512530.9584892,09:02:10.958,-8.53,1.218,-0.041,-0.1322,0.1707,-0.3254,NONE,1085
1770512530.9657426,09:02:10.965,-8.36,0.888,-0.373,-0.1403,0.1841,-0.1968,NONE,1086
1770512530.972639,09:02:10.972,-8.551,0.543,-0.644,-0.1316,0.1713,-0.0648,NONE,1087
1770512530.9796321,09:02:10.979,-8.754,0.223,-0.847,-0.107,0.1159,0.0604,NONE,1088
1770512530.9864154,09:02:10.986,-9.106,0.048,-0.775,-0.0412,0.0171,0.1555,NONE,1089
1770512530.9935405,09:02:10.993,-9.487,0.067,-0.778,-0.0041,-0.0273,0.174,NONE,1090
1770512531.001542,09:02:11.001,-9.798,0.069,-0.737,0.0266,-0.0396,0.1267,NONE,1091
1770512531.0087428,09:02:11.008,-10.039,0.206,-0.55,0.0548,-0.0441,0.0498,NONE,1092
1770512531.0157857,09:02:11.015,-10.032,0.445,-0.464,0.0496,-0.0556,-0.0404,NONE,1093
1770512531.0225432,09:02:11.022,-9.661,0.751,-0.211,0.0338,-0.0574,-0.1046,NONE,1094
1770512531.029711,09:02:11.029,-9.142,1.074,-0.033,-0.002,-0.03,-0.127,NONE,1095
1770512531.0365756,09:02:11.036,-8.9,1.223,0.022,-0.047,0.023,-0.1178,NONE,1096
1770512531.0436263,09:02:11.043,-8.903,1.256,0.069,-0.0814,0.0566,-0.1075,NONE,1097
1770512531.050635,09:02:11.050,-8.776,1.127,-0.134,-0.1086,0.0786,-0.0821,NONE,1098
1770512531.0576763,09:02:11.057,-8.62,0.904,-0.371,-0.1108,0.064,-0.023,NONE,1099
1770512531.064606,09:02:11.064,-8.341,0.773,-0.61,-0.1003,0.0739,0.0364,NONE,1100
1770512531.071586,09:02:11.071,-8.137,0.512,-0.943,-0.0709,0.1194,0.1375,NONE,1101
1770512531.0785222,09:02:11.078,-8.422,0.172,-1.302,-0.0068,0.1306,0.1986,NONE,1102
1770512531.0853899,09:02:11.085,-8.654,0.144,-1.314,0.0625,0.1552,0.2426,NONE,1103
1770512531.0923269,09:02:11.092,-8.436,0.615,-0.852,0.1037,0.1604,0.287,NONE,1104
1770512531.0994005,09:02:11.099,-7.644,1.299,-0.656,0.0925,0.2779,0.3862,NONE,1105
1770512531.1065207,09:02:11.106,-7.46,1.857,-0.285,0.045,0.4158,0.5404,NONE,1106
1770512531.1133769,09:02:11.113,-7.013,2.357,-0.06,-0.0031,0.5732,0.7657,NONE,1107
1770512531.1203983,09:02:11.120,-5.079,3.699,0.615,-0.1572,0.8392,1.0909,NONE,1108
1770512531.1273422,09:02:11.127,-5.245,3.754,1.22,-0.3659,1.0818,1.4558,NONE,1109
1770512531.134501,09:02:11.134,-4.816,4.256,0.557,-0.5108,1.4412,1.8854,NONE,1110
1770512531.1414862,09:02:11.141,-4.544,5.23,1.012,-0.7484,1.6539,2.3197,NONE,1111
1770512531.1484823,09:02:11.148,-5.725,3.015,-0.273,-0.9344,1.7774,3.11,NONE,1112
1770512531.1555312,09:02:11.155,-6.082,2.436,-2.338,-0.9196,1.4853,3.8892,NONE,1113
1770512531.1625776,09:02:11.162,-8.111,3.56,-4.843,-1.2281,0.8568,4.3656,NONE,1114
1770512531.1694272,09:02:11.169,-7.123,0.849,-3.847,-0.6374,0.5938,4.3656,NONE,1115
1770512531.1764252,09:02:11.176,-7.967,0.849,-3.675,-0.2864,0.0457,4.3656,NONE,1116
1770512531.1835454,09:02:11.183,-4.041,2.895,-3.333,-0.0817,-0.2581,4.3656,NONE,1117
1770512531.1903713,09:02:11.190,-1.443,4.969,-2.455,0.0246,-0.2902,4.3656,NONE,1118
1770512531.1975255,09:02:11.197,-1.486,7.506,-1.914,-0.0188,-0.2146,4.3656,NONE,1119
1770512531.2047038,09:02:11.204,-1.656,10.436,0.785,-0.2966,-0.222,4.3656,NONE,1120
1770512531.2116883,09:02:11.211,-1.605,10.865,2.294,-0.4863,-0.5792,4.3656,NONE,1121
1770512531.2185624,09:02:11.218,-2.962,11.673,1.223,-0.6063,-0.9241,4.3656,NONE,1122
1770512531.2254746,09:02:11.225,-3.326,12.87,1.007,-0.7218,-1.2962,4.3656,NONE,1123
1770512531.2328868,09:02:11.232,-3.668,14.088,1.364,-0.8623,-1.4835,4.3656,NONE,1124
1770512531.239708,09:02:11.239,-3.821,15.332,1.081,-0.8573,-1.2629,4.3656,NONE,1125
1770512531.2467995,09:02:11.246,-6.85,15.451,1.148,-0.8452,-1.006,4.3656,NONE,1126
1770512531.2535927,09:02:11.253,-7.927,16.219,1.187,-0.8823,-0.5496,4.3656,NONE,1127
1770512531.260635,09:02:11.260,-9.209,15.293,0.184,-0.8926,-0.3007,4.3656,NONE,1128
1770512531.267854,09:02:11.267,-10.092,14.064,-0.256,-0.8172,0.0135,4.3656,NONE,1129
1770512531.2756999,09:02:11.275,-10.948,13.803,-0.022,-0.7831,0.1905,4.3656,NONE,1130
1770512531.2827291,09:02:11.282,-10.788,14.14,0.354,-0.8156,0.2008,4.3656,NONE,1131
1770512531.2893856,09:02:11.289,-8.874,14.602,0.591,-0.8752,0.1966,4.3656,NONE,1132
1770512531.2966285,09:02:11.296,-6.455,13.949,-0.562,-0.8493,0.3632,4.3656,NONE,1133
1770512531.3037477,09:02:11.303,-4.876,13.487,-1.811,-0.7695,0.4175,4.3656,NONE,1134
1770512531.3105507,09:02:11.310,-3.374,13.52,-1.768,-0.7689,0.3956,4.3656,NONE,1135
1770512531.3175347,09:02:11.317,-4.01,12.791,-2.22,-0.7677,0.3675,4.3656,NONE,1136
1770512531.3247254,09:02:11.324,-6.24,12.288,-2.194,-0.7564,0.0085,4.3656,NONE,1137
1770512531.3316784,09:02:11.331,-8.013,12.595,-2.094,-0.8667,-0.4005,4.3656,NONE,1138
1770512531.3392422,09:02:11.339,-8.695,10.922,-2.366,-0.5994,-0.5733,4.3656,NONE,1139
1770512531.3469036,09:02:11.346,-10.671,9.865,-2.486,-0.4447,-0.7821,4.3656,NONE,1140
1770512531.35365,09:02:11.353,-10.204,9.654,-1.412,-0.318,-1.0617,4.004,NONE,1141
1770512531.3606732,09:02:11.360,-6.29,9.128,-1.615,-0.156,-1.2215,2.98,NONE,1142
1770512531.3674386,09:02:11.367,-2.017,8.07,-2.201,0.0723,-1.1739,2.3831,NONE,1143
1770512531.3745308,09:02:11.374,2.17,8.142,-1.503,0.2102,-1.2317,2.0484,NONE,1144
1770512531.3813841,09:02:11.381,5.986,8.424,-0.512,0.2398,-1.2875,2.0431,NONE,1145
1770512531.3882835,09:02:11.388,7.785,7.943,-0.835,0.2984,-1.1117,2.3828,NONE,1146
1770512531.3953738,09:02:11.395,7.276,8.187,0.189,0.296,-1.0968,2.6127,NONE,1147
1770512531.4024138,09:02:11.402,6.515,8.458,0.933,0.1324,-1.0192,2.6605,NONE,1148
1770512531.409449,09:02:11.409,3.943,8.695,2.062,0.0177,-1.0152,2.4729,NONE,1149
1770512531.416294,09:02:11.416,3.063,7.754,1.175,0.0657,-0.9915,2.2617,NONE,1150
1770512531.4232552,09:02:11.423,2.405,6.869,0.775,0.1326,-0.9515,1.9059,NONE,1151
1770512531.4305,09:02:11.430,3.584,6.498,0.378,0.2133,-0.9341,1.4526,NONE,1152
1770512531.4373162,09:02:11.437,4.972,6.249,-0.127,0.3052,-0.8776,1.1415,NONE,1153
1770512531.4445004,09:02:11.444,6.125,6.108,-0.548,0.4305,-0.8685,0.9673,NONE,1154
1770512531.45146,09:02:11.451,7.462,6.639,-0.627,0.482,-0.8318,0.8636,NONE,1155
1770512531.4584095,09:02:11.458,8.144,7.415,-0.156,0.518,-0.7906,0.9034,NONE,1156
1770512531.465192,09:02:11.465,8.396,8.671,0.17,0.4378,-0.6812,0.984,NONE,1157
1770512531.4723432,09:02:11.472,8.073,8.994,0.146,0.385,-0.6107,1.0793,NONE,1158
1770512531.4795573,09:02:11.479,6.513,8.403,-0.244,0.3577,-0.5313,1.0817,NONE,1159
1770512531.4864583,09:02:11.486,4.929,7.659,-0.73,0.3548,-0.4987,0.8615,NONE,1160
1770512531.4934325,09:02:11.493,2.943,7.214,-1.096,0.3929,-0.4803,0.4752,NONE,1161
1770512531.5004475,09:02:11.500,1.105,7.525,-0.555,0.4306,-0.5387,-0.0786,NONE,1162
1770512531.5074887,09:02:11.507,1.436,8.326,-0.225,0.3865,-0.6307,-0.8123,NONE,1163
1770512531.5144346,09:02:11.514,3.634,8.606,-0.62,0.3039,-0.516,-1.4606,NONE,1164
1770512531.5222745,09:02:11.522,4.689,8.848,-0.878,0.2485,-0.3896,-1.8852,NONE,1165
1770512531.528702,09:02:11.528,4.529,9.475,-0.352,0.2122,-0.3894,-2.1738,NONE,1166
1770512531.5356064,09:02:11.535,4.835,10.192,0.208,0.1296,-0.4695,-2.4856,NONE,1167
1770512531.5424442,09:02:11.542,5.797,10.267,0.16,0.0394,-0.405,-2.8392,NONE,1168
1770512531.5497074,09:02:11.549,7.087,9.831,-1.055,-0.0195,-0.105,-3.1666,NONE,1169
1770512531.5564387,09:02:11.556,6.671,9.135,-1.663,-0.0237,0.1691,-3.4243,NONE,1170
1770512531.5633986,09:02:11.563,5.544,9.307,-1.782,-0.0381,0.1673,-3.691,NONE,1171
1770512531.5703819,09:02:11.570,4.469,9.707,-1.151,-0.0709,0.0477,-4.0188,NONE,1172
1770512531.5775623,09:02:11.577,4.845,10.556,-0.938,-0.1358,0.0568,-4.3391,NONE,1173
1770512531.5845072,09:02:11.584,4.953,11.176,-1.254,-0.1972,0.2116,-4.3657,NONE,1174
1770512531.5914857,09:02:11.591,3.496,10.977,-1.548,-0.2534,0.3576,-4.3657,NONE,1175
1770512531.598614,09:02:11.598,1.613,10.908,-1.235,-0.3178,0.2004,-4.3657,NONE,1176
1770512531.6056876,09:02:11.605,0.383,11.288,-0.749,-0.4342,0.064,-4.3657,NONE,1177
1770512531.6131883,09:02:11.613,-1.091,11.666,-0.373,-0.5921,-0.0703,-4.3657,NONE,1178
1770512531.61976,09:02:11.619,-2.567,11.92,0.002,-0.8251,-0.1751,-4.3657,NONE,1179
1770512531.6267378,09:02:11.626,-3.137,12.303,-0.012,-1.0669,-0.3387,-4.3657,NONE,1180
1770512531.6338255,09:02:11.633,-4.381,12.626,0.476,-1.335,-0.4255,-4.3657,NONE,1181
1770512531.6407807,09:02:11.640,-4.986,12.499,0.27,-1.5495,-0.5195,-4.3657,NONE,1182
1770512531.647932,09:02:11.647,-4.089,12.382,-0.778,-1.6621,-0.4214,-4.3657,NONE,1183
1770512531.6546316,09:02:11.654,-3.225,11.59,-1.359,-1.6697,-0.2903,-4.3657,NONE,1184
1770512531.6616313,09:02:11.661,-3.115,12.083,-0.964,-1.7323,-0.119,-4.3657,NONE,1185
1770512531.6688163,09:02:11.668,-2.005,12.327,-1.038,-1.7276,-0.026,-4.3657,NONE,1186
1770512531.675594,09:02:11.675,-1.342,11.984,-1.409,-1.6354,0.0927,-4.3657,NONE,1187
1770512531.6830328,09:02:11.683,-0.605,12.965,-1.617,-1.6333,0.3126,-4.3657,NONE,1188
1770512531.689654,09:02:11.689,-0.802,12.748,-1.644,-1.5864,0.5323,-4.3657,NONE,1189
1770512531.6968238,09:02:11.696,-1.419,12.224,-1.955,-1.4429,0.7167,-4.3657,NONE,1190
1770512531.7038627,09:02:11.703,-2.153,12.202,-1.34,-1.2865,0.7851,-4.3657,NONE,1191
1770512531.7107177,09:02:11.710,-2.407,12.19,-0.77,-1.1932,0.9371,-4.3657,NONE,1192
1770512531.7177708,09:02:11.717,-3.527,11.994,-0.132,-1.2701,1.0764,-4.3657,NONE,1193
1770512531.7245927,09:02:11.724,-4.024,10.599,-0.179,-1.2412,1.2462,-4.3657,NONE,1194
1770512531.7313948,09:02:11.731,-5.041,9.477,0.043,-1.2438,1.5146,-4.3657,NONE,1195
1770512531.7385035,09:02:11.738,-7.235,8.25,0.16,-1.1999,1.6483,-4.3657,NONE,1196
1770512531.7458565,09:02:11.745,-8.202,7.228,0.691,-1.1863,1.5824,-4.3657,NONE,1197
1770512531.7525318,09:02:11.752,-8.762,6.613,0.928,-1.1587,1.504,-4.3657,NONE,1198
1770512531.7594748,09:02:11.759,-9.348,7.106,0.84,-1.1503,1.248,-4.3657,NONE,1199
1770512531.7666311,09:02:11.766,-8.953,6.192,1.964,-1.1979,1.0651,-4.3657,NONE,1200
1770512531.773439,09:02:11.773,-8.436,5.809,1.536,-1.27,1.0499,-4.3657,NONE,1201
1770512531.7804534,09:02:11.780,-7.386,4.895,0.543,-1.2196,1.1033,-4.3657,NONE,1202
1770512531.787533,09:02:11.787,-7.764,3.4,-0.524,-1.094,1.0677,-4.3657,NONE,1203
1770512531.7945485,09:02:11.794,-7.429,2.507,-1.273,-0.9337,1.0496,-4.3657,NONE,1204
1770512531.8016074,09:02:11.801,-6.826,1.55,-1.522,-0.7645,0.9679,-4.3657,NONE,1205
1770512531.8089485,09:02:11.808,-6.793,0.38,-2.113,-0.5629,0.8312,-4.3657,NONE,1206
1770512531.815722,09:02:11.815,-7.261,-0.512,-2.445,-0.3477,0.6928,-4.3657,NONE,1207
1770512531.8228278,09:02:11.822,-6.927,-1.084,-2.62,-0.2266,0.6322,-4.3657,NONE,1208
1770512531.8298895,09:02:11.829,-7.845,-1.902,-2.531,-0.1135,0.5816,-4.3657,NONE,1209
1770512531.8364544,09:02:11.836,-8.386,-2.828,-2.376,0.0036,0.5469,-4.3657,NONE,1210
1770512531.8436406,09:02:11.843,-8.63,-3.132,-2.125,0.0785,0.4118,-4.3657,NONE,1211
1770512531.850711,09:02:11.850,-9.075,-3.094,-1.687,0.1182,0.3303,-4.3657,NONE,1212
1770512531.8576252,09:02:11.857,-7.951,-2.491,-0.412,0.0151,0.3724,-4.3657,NONE,1213
1770512531.8646703,09:02:11.864,-6.644,-2.742,-0.498,-0.1156,0.4607,-4.3657,NONE,1214
1770512531.871768,09:02:11.871,-7.025,-3.797,-1.117,-0.1006,0.4859,-4.3657,NONE,1215
1770512531.8787496,09:02:11.878,-6.848,-4.041,-0.273,-0.0285,0.2332,-4.3657,NONE,1216
1770512531.8858995,09:02:11.885,-5.087,-4.017,-0.38,-0.0366,-0.0352,-4.3657,NONE,1217
1770512531.892715,09:02:11.892,-5.056,-4.309,-0.194,0.0108,-0.3275,-4.3657,NONE,1218
1770512531.9001985,09:02:11.900,-2.986,-3.828,0.613,-0.0207,-0.5041,-4.3657,NONE,1219
1770512531.9070985,09:02:11.907,-1.916,-3.701,1.321,-0.1348,-0.5903,-4.3657,NONE,1220
1770512531.91417,09:02:11.914,-0.447,-3.345,1.517,-0.3134,-0.4952,-4.3657,NONE,1221
1770512531.9208663,09:02:11.920,-1.062,-3.902,1.378,-0.377,-0.3265,-4.0759,NONE,1222
1770512531.928146,09:02:11.928,-2.007,-5.536,0.969,-0.5128,-0.1735,-3.4645,NONE,1223
1770512531.9352942,09:02:11.935,-2.945,-6.438,0.837,-0.5645,-0.1628,-3.0168,NONE,1224
1770512531.9422133,09:02:11.942,-3.802,-7.73,0.395,-0.536,-0.1415,-2.5744,NONE,1225
1770512531.9492466,09:02:11.949,-4.197,-8.216,-0.412,-0.4938,-0.0995,-2.2441,NONE,1226
1770512531.9568837,09:02:11.956,-5.23,-8.623,-0.627,-0.4195,-0.0837,-2.0387,NONE,1227
1770512531.9627619,09:02:11.962,-5.68,-8.642,-0.605,-0.3936,-0.0282,-1.9261,NONE,1228
1770512531.9695888,09:02:11.969,-6.106,-8.649,-0.404,-0.3956,0.004,-1.8716,NONE,1229
1770512531.9767725,09:02:11.976,-6.214,-8.711,-0.33,-0.3948,-0.0621,-1.8341,NONE,1230
1770512531.9837325,09:02:11.983,-5.862,-8.565,-0.4,-0.3866,-0.0898,-1.7567,NONE,1231
1770512531.9907978,09:02:11.990,-5.505,-8.46,-0.16,-0.3788,-0.0504,-1.5972,NONE,1232
1770512531.9976559,09:02:11.997,-5.357,-8.489,0.108,-0.3946,-0.0429,-1.4731,NONE,1233
1770512532.005047,09:02:12.005,-5.163,-8.807,-0.177,-0.3849,-0.0393,-1.2886,NONE,1234
1770512532.0132084,09:02:12.013,-5.008,-9.001,-0.316,-0.3497,-0.0157,-1.0055,NONE,1235
1770512532.0207927,09:02:12.020,-5.728,-9.068,0.103,-0.3043,-0.1127,-0.716,NONE,1236
1770512532.0281901,09:02:12.028,-5.367,-8.975,-0.304,-0.2499,-0.1748,-0.4863,NONE,1237
1770512532.034983,09:02:12.034,-5.642,-8.953,-0.275,-0.2258,-0.1046,-0.2313,NONE,1238
1770512532.0419478,09:02:12.041,-6.57,-9.166,-0.23,-0.2301,-0.0646,-0.2012,NONE,1239
1770512532.0487137,09:02:12.048,-6.56,-9.149,-0.345,-0.2409,0.0545,-0.2125,NONE,1240
1770512532.0556762,09:02:12.055,-6.546,-9.31,-0.39,-0.2657,0.1672,-0.2659,NONE,1241
1770512532.0630865,09:02:12.063,-6.264,-9.597,-0.531,-0.269,0.2509,-0.2746,NONE,1242
1770512532.0696733,09:02:12.069,-5.723,-9.862,-0.845,-0.2326,0.2486,-0.2125,NONE,1243
1770512532.0779984,09:02:12.077,-4.656,-9.807,-1.031,-0.1487,0.202,0.048,NONE,1244
1770512532.0847144,09:02:12.084,-3.472,-9.525,-0.897,-0.0614,0.1392,0.4021,NONE,1245
1770512532.09184,09:02:12.091,-2.56,-8.869,-0.519,-0.0277,0.1637,0.8829,NONE,1246
1770512532.0984678,09:02:12.098,-2.771,-8.252,0.033,-0.0136,0.156,1.3552,NONE,1247
1770512532.105486,09:02:12.105,-3.498,-7.862,0.234,-0.0123,0.1933,1.7962,NONE,1248
1770512532.1125515,09:02:12.112,-3.919,-7.415,0.632,-0.0634,0.2866,2.1241,NONE,1249
1770512532.1196115,09:02:12.119,-4.445,-7.137,0.802,-0.1657,0.3908,2.3804,NONE,1250
1770512532.1265082,09:02:12.126,-4.725,-7.261,0.34,-0.2481,0.508,2.6374,NONE,1251
1770512532.133686,09:02:12.133,-5.029,-7.415,-0.239,-0.2858,0.5939,2.9455,NONE,1252
1770512532.1407049,09:02:12.140,-5.144,-7.496,-0.794,-0.2942,0.5221,3.3019,NONE,1253
1770512532.1476784,09:02:12.147,-5.429,-7.431,-1.031,-0.2663,0.3746,3.7277,NONE,1254
1770512532.1546435,09:02:12.154,-5.235,-7.058,-1.16,-0.2072,0.1194,4.1727,NONE,1255
1770512532.1616037,09:02:12.161,-4.857,-6.781,-1.493,-0.1676,-0.1017,4.3656,NONE,1256
1770512532.1686897,09:02:12.168,-4.632,-6.281,-1.625,-0.1037,-0.296,4.3656,NONE,1257
1770512532.1756148,09:02:12.175,-4.709,-5.678,-1.62,-0.0316,-0.3996,4.3656,NONE,1258
1770512532.1828065,09:02:12.182,-4.764,-5.041,-2.213,0.0462,-0.4417,4.3656,NONE,1259
1770512532.1895354,09:02:12.189,-5.8,-5.106,-2.936,0.178,-0.4038,4.3656,NONE,1260
1770512532.196783,09:02:12.196,-7.635,-5.113,-2.673,0.3055,-0.5089,4.3656,NONE,1261
1770512532.2034779,09:02:12.203,-8.546,-4.687,-2.735,0.4435,-0.6526,4.3656,NONE,1262
1770512532.211829,09:02:12.211,-8.419,-3.95,-2.854,0.6175,-0.7172,4.3656,NONE,1263
1770512532.2186644,09:02:12.218,-8.219,-2.699,-2.259,0.7104,-0.5881,4.3656,NONE,1264
1770512532.2257874,09:02:12.225,-8.721,-1.981,-1.579,0.7837,-0.5173,4.3656,NONE,1265
1770512532.2329533,09:02:12.232,-7.137,-0.531,-1.11,0.7973,-0.3176,4.3656,NONE,1266
1770512532.2395132,09:02:12.239,-6.711,0.742,-0.62,0.7533,-0.0789,4.3656,NONE,1267
1770512532.246534,09:02:12.246,-6.197,2.022,-0.388,0.6468,0.2089,4.3656,NONE,1268
1770512532.2534254,09:02:12.253,-5.924,3.84,0.648,0.4767,0.4832,4.3656,NONE,1269
1770512532.2606363,09:02:12.260,-6.415,4.661,0.782,0.2578,0.6274,4.3656,NONE,1270
1770512532.2673988,09:02:12.267,-7.022,4.749,-0.534,0.135,0.7497,4.3656,NONE,1271
1770512532.274507,09:02:12.274,-9.116,4.314,-1.579,0.1482,0.5781,4.3656,NONE,1272
1770512532.2816024,09:02:12.281,11.525,4.168,-1.122,0.1703,0.0721,4.3656,NONE,1273
1770512532.2887928,09:02:12.288,-12.595,4.532,-0.644,0.1836,-0.7119,4.3656,NONE,1274
1770512532.2958066,09:02:12.295,-12.798,4.855,-0.56,0.2402,-1.3574,4.3656,NONE,1275
1770512532.3030174,09:02:12.303,-11.642,5.778,-0.644,0.3102,-1.6852,4.3656,NONE,1276
1770512532.3097548,09:02:12.309,-11.058,6.269,-0.574,0.3323,-1.7745,4.3656,NONE,1277
1770512532.3166754,09:02:12.316,-9.891,6.663,-0.821,0.3485,-1.6152,4.3656,NONE,1278
1770512532.3235843,09:02:12.323,-10.525,6.345,-1.529,0.4423,-1.4938,4.3656,NONE,1279
1770512532.3309376,09:02:12.330,-11.637,5.926,-1.67,0.6158,-1.623,4.3656,NONE,1280
1770512532.338039,09:02:12.338,-9.8,6.472,-2.089,0.8058,-1.6979,4.3656,NONE,1281
1770512532.3446243,09:02:12.344,-8.101,7.484,-1.151,0.9359,-1.5218,4.3656,NONE,1282
1770512532.3516414,09:02:12.351,-6.917,8.752,-0.428,0.9212,-1.3491,4.3656,NONE,1283
1770512532.3585243,09:02:12.358,-5.752,9.551,0.043,0.8747,-1.3065,4.3656,NONE,1284
1770512532.3656495,09:02:12.365,-2.902,10.563,0.033,0.8402,-1.3584,4.3656,NONE,1285
1770512532.3731647,09:02:12.373,-0.313,12.248,1.079,0.7524,-1.3817,4.3656,NONE,1286
1770512532.3793118,09:02:12.379,1.239,14.016,2.129,0.6155,-1.277,4.3656,NONE,1287
1770512532.3866317,09:02:12.386,-1.464,14.908,2.335,0.362,-1.0469,4.3656,NONE,1288
1770512532.394009,09:02:12.394,-1.462,15.906,3.591,0.1603,-1.2024,4.3656,NONE,1289
1770512532.401188,09:02:12.401,-1.29,16.774,4.261,-0.1078,-1.0159,4.3656,NONE,1290
1770512532.4086866,09:02:12.408,-3.57,16.401,4.814,-0.4958,-0.7135,4.3656,NONE,1291
1770512532.4156027,09:02:12.415,-2.943,15.401,2.806,-0.6957,-0.4211,4.3656,NONE,1292
1770512532.422569,09:02:12.422,-4.807,13.135,0.55,-0.644,-0.0775,4.3656,NONE,1293
1770512532.4298015,09:02:12.429,-6.065,11.489,-0.17,-0.6467,-0.1014,4.3656,NONE,1294
1770512532.4365265,09:02:12.436,-5.785,9.845,-1.613,-0.5384,-0.073,4.3656,NONE,1295
1770512532.4434283,09:02:12.443,-8.034,8.491,-2.144,-0.3475,-0.0947,4.3656,NONE,1296
1770512532.4506774,09:02:12.450,-9.946,8.147,-1.132,-0.1841,-0.3265,4.3656,NONE,1297
1770512532.4576073,09:02:12.457,-10.29,8.293,0.136,-0.1247,-0.4275,4.3315,NONE,1298
1770512532.4643607,09:02:12.464,-9.659,8.302,0.969,-0.1251,-0.5534,2.9868,NONE,1299
1770512532.4716122,09:02:12.471,-6.778,8.546,1.258,-0.1935,-0.6572,1.9044,NONE,1300
1770512532.478587,09:02:12.478,-1.727,8.575,0.735,-0.2645,-0.7643,1.2083,NONE,1301
1770512532.4856284,09:02:12.485,1.852,9.288,-0.325,-0.4875,-0.7171,0.9569,NONE,1302
1770512532.4924514,09:02:12.492,9.087,8.518,-2.316,-0.2312,-0.7437,1.4268,NONE,1303
1770512532.4998353,09:02:12.499,5.625,7.951,-1.041,-0.2952,-0.9178,1.7704,NONE,1304
1770512532.5063498,09:02:12.506,6.532,8.513,-1.699,-0.081,-0.9804,2.4452,NONE,1305
1770512532.5134985,09:02:12.513,4.766,8.532,-0.873,-0.053,-0.9998,2.5731,NONE,1306
1770512532.5205073,09:02:12.520,3.685,9.47,0.376,-0.0464,-0.8892,2.4329,NONE,1307
1770512532.5273423,09:02:12.527,0.687,9.116,1.208,-0.0943,-0.8179,2.0311,NONE,1308
1770512532.5345285,09:02:12.534,0.361,9.738,1.811,-0.2002,-0.7853,1.4743,NONE,1309
1770512532.5414653,09:02:12.541,1.215,9.209,1.57,-0.3092,-0.7456,0.9677,NONE,1310
1770512532.5482368,09:02:12.548,2.378,8.336,0.431,-0.3268,-0.7548,0.6199,NONE,1311
1770512532.5554278,09:02:12.555,3.613,7.905,-0.074,-0.2803,-0.7643,0.4162,NONE,1312
1770512532.5627103,09:02:12.562,4.421,7.632,-0.136,-0.231,-0.7629,0.3175,NONE,1313
1770512532.5694866,09:02:12.569,5.089,7.144,-1.089,-0.1569,-0.653,0.2899,NONE,1314
1770512532.5766277,09:02:12.576,2.988,6.47,-1.34,-0.0067,-0.6813,0.0925,NONE,1315
1770512532.5833313,09:02:12.583,2.649,7.166,-0.672,0.0641,-0.6909,-0.2587,NONE,1316
1770512532.5903423,09:02:12.590,5.984,8.96,0.163,0.0004,-0.5245,-0.6225,NONE,1317
1770512532.5975733,09:02:12.597,6.419,9.243,0.438,-0.0681,-0.2495,-0.7354,NONE,1318
1770512532.6045558,09:02:12.604,5.78,9.396,0.694,-0.1124,-0.1587,-0.6913,NONE,1319
1770512532.6116662,09:02:12.611,4.814,9.829,1.337,-0.1905,-0.232,-0.6824,NONE,1320
1770512532.618826,09:02:12.618,4.331,10.46,1.993,-0.3143,-0.2554,-0.8011,NONE,1321
1770512532.6257393,09:02:12.625,4.043,10.764,2.28,-0.4947,-0.1617,-1.1086,NONE,1322
1770512532.6329226,09:02:12.632,2.615,10.269,2.216,-0.6514,-0.1107,-1.5925,NONE,1323
1770512532.6395342,09:02:12.639,1.364,9.666,1.909,-0.7773,-0.0517,-2.2087,NONE,1324
1770512532.6467419,09:02:12.646,-0.476,9.321,1.924,-0.8913,-0.0962,-2.9066,NONE,1325
1770512532.6535287,09:02:12.653,-1.993,9.302,1.883,-0.982,-0.2141,-3.7467,NONE,1326
1770512532.6616359,09:02:12.661,-2.763,9.75,1.873,-1.1038,-0.33,-4.3657,NONE,1327
1770512532.6687005,09:02:12.668,-1.826,10.35,1.629,-1.2544,-0.3202,-4.3657,NONE,1328
1770512532.6755686,09:02:12.675,0.16,10.609,0.514,-1.363,-0.1286,-4.3657,NONE,1329
1770512532.682573,09:02:12.682,2.46,10.848,-0.481,-1.4091,0.2725,-4.3657,NONE,1330
1770512532.6896443,09:02:12.689,4.417,12.142,-1.577,-1.0203,1.4035,-4.3657,NONE,1331
1770512532.696389,09:02:12.696,2.07,9.31,-2.005,-1.1362,0.787,-4.3657,NONE,1332
1770512532.7034273,09:02:12.703,2.51,9.513,-2.649,-0.8523,1.1572,-4.3657,NONE,1333
1770512532.710331,09:02:12.710,0.694,9.755,-1.292,-0.7973,0.9934,-4.3657,NONE,1334
1770512532.717656,09:02:12.717,-0.146,10.317,-0.239,-0.8168,1.079,-4.3657,NONE,1335
1770512532.7247884,09:02:12.724,-1.912,10.886,1.227,-0.9328,1.1222,-4.3657,NONE,1336
1770512532.7320538,09:02:12.732,-4.089,11.307,2.598,-1.1799,1.1716,-4.3657,NONE,1337
1770512532.7385964,09:02:12.738,-5.034,11.836,3.529,-1.4486,1.158,-4.3657,NONE,1338
1770512532.7459054,09:02:12.745,-5.544,12.133,4.065,-1.7503,1.1493,-4.3657,NONE,1339
1770512532.7527614,09:02:12.752,-5.682,12.013,4.192,-2.0295,1.1907,-4.3657,NONE,1340
1770512532.759671,09:02:12.759,-4.8,11.642,3.644,-2.221,1.2175,-4.3657,NONE,1341
1770512532.7665246,09:02:12.766,-3.888,11.649,3.479,-2.3122,1.3963,-4.3657,NONE,1342
1770512532.773471,09:02:12.773,-4.369,10.743,2.632,-2.3041,1.6955,-4.3657,NONE,1343
1770512532.7805698,09:02:12.780,-3.854,10.147,1.395,-2.3698,1.8967,-4.3657,NONE,1344
1770512532.788079,09:02:12.788,-3.048,8.455,-0.234,-2.1132,2.2368,-4.3657,NONE,1345
1770512532.7948034,09:02:12.794,-1.735,9.36,-2.479,-1.7644,2.8273,-4.3657,NONE,1346
1770512532.8014555,09:02:12.801,-0.668,7.125,-3.292,-1.639,3.0626,-4.3657,NONE,1347
1770512532.8088279,09:02:12.808,-0.096,5.826,-3.146,-1.4049,3.3658,-4.3657,NONE,1348
1770512532.815719,09:02:12.815,-0.591,4.876,-2.711,-1.2794,3.4122,-4.3657,NONE,1349
1770512532.8225834,09:02:12.822,-1.785,4.45,-1.352,-1.1703,3.4127,-4.3657,NONE,1350
1770512532.8297374,09:02:12.829,-3.354,4.034,-0.084,-1.1426,3.2611,-4.3657,NONE,1351
1770512532.8366945,09:02:12.836,-5.017,3.72,1.141,-1.1719,3.047,-4.3657,NONE,1352
1770512532.8436236,09:02:12.843,-6.534,3.362,1.584,-1.2902,2.6445,-4.3657,NONE,1353
1770512532.850615,09:02:12.850,-7.766,2.634,1.486,-1.4093,2.2815,-3.6039,NONE,1354
1770512532.857607,09:02:12.857,-8.838,1.694,1.002,-1.4669,1.8799,-2.9206,NONE,1355
1770512532.8646405,09:02:12.864,-9.496,0.423,-0.28,-1.4437,1.5976,-2.3915,NONE,1356
1770512532.8720942,09:02:12.872,-10.367,-0.613,-1.227,-1.3203,1.2778,-1.8868,NONE,1357
1770512532.8792543,09:02:12.879,-10.747,-1.194,-1.797,-1.1635,0.9635,-1.4614,NONE,1358
1770512532.8857613,09:02:12.885,-10.972,-1.175,-1.948,-1.009,0.6977,-1.105,NONE,1359
1770512532.8927608,09:02:12.892,-11.233,-0.701,-1.192,-0.9021,0.5041,-0.8356,NONE,1360
1770512532.8997204,09:02:12.899,-11.532,-0.053,-0.223,-0.8711,0.3786,-0.6455,NONE,1361
1770512532.9065719,09:02:12.906,-11.353,0.718,0.574,-0.9076,0.286,-0.5677,NONE,1362
1770512532.9135451,09:02:12.913,-11.111,0.751,0.663,-0.9447,0.3524,-0.4736,NONE,1363
1770512532.920715,09:02:12.920,-10.389,0.742,0.117,-0.9387,0.4306,-0.3841,NONE,1364
1770512532.927524,09:02:12.927,-10.542,0.605,-0.146,-0.9172,0.5465,-0.267,NONE,1365
1770512532.9348836,09:02:12.934,-11.307,0.12,-0.426,-0.8126,0.5161,-0.176,NONE,1366
1770512532.9416769,09:02:12.941,-11.133,-0.122,-1.069,-0.6789,0.478,-0.1444,NONE,1367
1770512532.948692,09:02:12.948,-11.587,-0.167,-1.495,-0.5333,0.5299,-0.0478,NONE,1368
1770512532.9556427,09:02:12.955,-11.693,-0.455,-1.438,-0.3183,0.4135,-0.03,NONE,1369
1770512532.9629433,09:02:12.962,-11.188,-0.34,-1.306,-0.127,0.3552,-0.0099,NONE,1370
1770512532.9697733,09:02:12.969,-11.085,-0.263,-1.022,0.0727,0.2602,0.0813,NONE,1371
1770512532.976757,09:02:12.976,-11.448,-1.077,2.823,0.2185,0.1958,-0.0654,NONE,1372
1770512532.9835653,09:02:12.983,-9.374,0.933,-1.139,0.2821,0.0093,-0.0373,NONE,1373
1770512532.990355,09:02:12.990,-12.075,1.017,0.888,0.2418,0.0191,-0.1423,NONE,1374
1770512532.9976578,09:02:12.997,-10.896,1.491,1.017,0.1977,0.0973,-0.2621,NONE,1375
1770512533.00454,09:02:13.004,-11.204,1.419,1.443,0.1411,0.1061,-0.4371,NONE,1376
1770512533.0114758,09:02:13.011,-10.013,1.773,0.816,0.0835,0.1384,-0.5143,NONE,1377
1770512533.01828,09:02:13.018,-9.781,1.479,0.452,0.0641,0.2437,-0.4406,NONE,1378
1770512533.025591,09:02:13.025,-9.286,1.168,-0.081,0.1027,0.2978,-0.3691,NONE,1379
1770512533.0325642,09:02:13.032,-8.941,1.041,-0.543,0.1712,0.3331,-0.2814,NONE,1380
1770512533.0394983,09:02:13.039,-9.085,0.974,-0.713,0.2415,0.3564,-0.1711,NONE,1381
1770512533.046563,09:02:13.046,-9.31,0.955,-0.641,0.317,0.3293,-0.0703,NONE,1382
1770512533.0532813,09:02:13.053,-9.807,1.019,-0.452,0.3977,0.2939,0.0264,NONE,1383
1770512533.060587,09:02:13.060,-10.082,1.146,-0.108,0.4375,0.2244,0.056,NONE,1384
1770512533.0674582,09:02:13.067,-11.645,0.534,2.271,0.3964,0.1721,-0.1206,NONE,1385
1770512533.0744133,09:02:13.074,-8.649,1.756,-0.024,0.4263,0.1737,-0.0084,NONE,1386
1770512533.081399,09:02:13.081,-11.013,1.232,0.67,0.3776,0.1013,-0.1236,NONE,1387
1770512533.0884266,09:02:13.088,-10.575,1.462,0.749,0.3044,0.1833,-0.2177,NONE,1388
1770512533.0954921,09:02:13.095,-10.46,1.371,0.883,0.239,0.1324,-0.4038,NONE,1389
1770512533.1025817,09:02:13.102,-10.042,1.376,0.593,0.1876,0.1679,-0.4783,NONE,1390
1770512533.1096497,09:02:13.109,-9.987,1.034,-0.031,0.1712,0.1195,-0.589,NONE,1391
1770512533.1164315,09:02:13.116,-8.955,1.084,-0.639,0.192,0.128,-0.5915,NONE,1392
1770512533.1234381,09:02:13.123,-8.044,1.036,-0.935,0.2499,0.1605,-0.4963,NONE,1393
1770512533.1304815,09:02:13.130,-7.771,0.888,-1.206,0.3131,0.1745,-0.342,NONE,1394
1770512533.1373777,09:02:13.137,-7.479,0.818,-1.479,0.4118,0.1667,-0.1235,NONE,1395
1770512533.1443548,09:02:13.144,-7.383,0.988,-1.34,0.5085,0.1073,0.114,NONE,1396
1770512533.1512923,09:02:13.151,-7.238,1.287,-0.811,0.5375,0.0946,0.3043,NONE,1397
1770512533.1582623,09:02:13.158,-7.817,1.562,-0.373,0.4974,0.0665,0.4266,NONE,1398
1770512533.1654625,09:02:13.165,-8.25,1.622,-0.144,0.4382,0.0534,0.5028,NONE,1399
1770512533.1722064,09:02:13.172,-8.551,1.469,0.079,0.3781,0.0468,0.5253,NONE,1400
1770512533.1792283,09:02:13.179,-8.908,1.378,-0.151,0.3164,0.0718,0.5335,NONE,1401
1770512533.1865199,09:02:13.186,-9.508,1.184,-0.292,0.2661,0.0573,0.4838,NONE,1402
1770512533.193698,09:02:13.193,-11.391,1.038,-0.589,0.219,-0.1391,0.1813,NONE,1403
1770512533.200362,09:02:13.200,-9.214,1.206,-0.624,0.2008,0.1583,0.4146,NONE,1404
1770512533.2075212,09:02:13.207,-10.013,1.034,-0.567,0.1751,0.0416,0.1888,NONE,1405
1770512533.2146301,09:02:13.214,-10.257,1.002,-0.395,0.1339,0.1196,0.1059,NONE,1406
1770512533.2220902,09:02:13.222,-9.838,0.991,-0.579,0.109,0.0902,-0.028,NONE,1407
1770512533.229009,09:02:13.229,-9.577,0.737,-0.694,0.0765,0.1191,-0.1294,NONE,1408
1770512533.236238,09:02:13.236,-9.259,0.842,-0.873,0.1014,0.0785,-0.1765,NONE,1409
1770512533.2430463,09:02:13.243,-8.896,1.139,-0.687,0.0726,0.071,-0.2021,NONE,1410
1770512533.2494128,09:02:13.249,-8.226,1.464,-0.433,0.0129,0.0392,-0.2262,NONE,1411
1770512533.2569582,09:02:13.256,-7.888,1.754,-0.234,-0.0294,0.0258,-0.1386,NONE,1412
1770512533.2637792,09:02:13.263,-7.8,1.634,-0.455,-0.089,0.0171,-0.0144,NONE,1413
1770512533.2704127,09:02:13.270,-7.204,1.945,-0.823,-0.1319,0.0155,0.1561,NONE,1414
1770512533.2774875,09:02:13.277,-7.764,1.924,-0.706,-0.1845,0.0452,0.3691,NONE,1415
1770512533.284557,09:02:13.284,-8.221,2.067,-0.613,-0.2506,0.023,0.4743,NONE,1416
1770512533.2916787,09:02:13.291,-8.927,2.44,-0.335,-0.3459,0.0658,0.5396,NONE,1417
1770512533.2987432,09:02:13.298,-9.865,3.043,0.72,-0.4984,0.0786,0.5478,NONE,1418
1770512533.3065412,09:02:13.306,-10.625,3.519,1.658,-0.7809,0.0691,0.4326,NONE,1419
1770512533.3133605,09:02:13.313,-10.98,4.252,2.022,-1.0517,0.0249,0.2906,NONE,1420
1770512533.3203835,09:02:13.320,-11.448,4.802,2.45,-1.3674,0.014,0.207,NONE,1421
1770512533.3276222,09:02:13.327,-12.004,5.268,3.048,-1.7072,-0.0316,0.1883,NONE,1422
1770512533.3346074,09:02:13.334,-11.654,5.632,3.216,-2.0985,-0.1617,0.0556,NONE,1423
1770512533.3418565,09:02:13.341,-11.011,5.45,2.34,-2.4738,-0.2828,-0.061,NONE,1424
1770512533.3485487,09:02:13.348,-9.819,6.034,1.787,-2.8142,-0.37,-0.1494,NONE,1425
1770512533.35572,09:02:13.355,-9.731,7.116,2.806,-3.2538,-0.3112,-0.2542,NONE,1426
1770512533.3629003,09:02:13.362,-8.357,8.089,3.163,-3.7924,-0.2851,-0.5648,NONE,1427
1770512533.3695893,09:02:13.369,-7.034,8.8,2.359,-4.3657,-0.1703,-0.765,NONE,1428
1770512533.376604,09:02:13.376,-6.563,10.025,2.481,-4.3657,0.0822,-0.8785,NONE,1429
1770512533.383535,09:02:13.383,-5.367,10.625,1.926,-4.3657,0.4141,-0.9875,NONE,1430
1770512533.390521,09:02:13.390,-6.838,10.625,1.677,-4.3657,0.547,-1.1552,NONE,1431
1770512533.3974943,09:02:13.397,-7.644,12.908,2.653,-4.3657,0.5961,-1.2931,NONE,1432
1770512533.4050846,09:02:13.405,-10.707,14.824,4.235,-4.3657,0.5692,-1.4051,NONE,1433
1770512533.4116251,09:02:13.411,-11.934,14.923,2.969,-4.3657,0.152,-1.8988,NONE,1434
1770512533.4188845,09:02:13.418,-10.271,13.099,-1.902,-4.3657,-0.1879,-2.0412,NONE,1435
1770512533.4260683,09:02:13.426,-8.991,10.001,-6.163,-4.3657,-0.567,-1.8624,NONE,1436
1770512533.4326859,09:02:13.432,-5.204,4.929,-11.178,-4.3657,-0.4791,-1.6081,NONE,1437
1770512533.4396977,09:02:13.439,-3.941,1.294,-12.752,-4.3657,-0.6342,-1.0736,NONE,1438
1770512533.4465096,09:02:13.446,-8.738,0.825,-8.85,-4.3657,-0.4832,-0.3872,NONE,1439
1770512533.453715,09:02:13.453,-6.278,3.974,-7.049,-4.3657,-0.4668,-0.2731,NONE,1440
