timestamp,datetime,ax,ay,az,gx,gy,gz,label,frame_id
1770475753.5713375,49:13.6,-6.161,7.163,-0.139,0.018,0.0051,0.0336,NONE,1
1770475753.5730565,49:13.6,-6.118,7.099,-0.191,0.02,0.0024,0.0501,NONE,2
1770475753.5746257,49:13.6,-6.154,7.156,-0.22,0.0314,0.0024,0.0685,NONE,3
1770475753.5765738,49:13.6,-6.182,7.168,-0.124,0.0398,0.0056,0.0751,NONE,4
1770475753.5781744,49:13.6,-6.094,7.305,-0.156,0.0438,0.0112,0.0614,NONE,5
1770475753.5803933,49:13.6,-6.135,7.338,-0.108,0.0444,0.0135,0.0286,NONE,6
1770475753.582572,49:13.6,-6.142,7.367,-0.215,0.0416,0.0105,-0.0029,NONE,7
1770475753.5851781,49:13.6,-6.192,7.403,-0.184,0.0344,0.0063,-0.0123,NONE,8
1770475753.587046,49:13.6,-6.192,7.293,-0.136,0.0265,-0.0013,-0.0116,NONE,9
1770475753.5892262,49:13.6,-6.185,7.183,-0.136,0.0306,-0.0177,-0.008,NONE,10
1770475753.591089,49:13.6,-6.156,7.183,-0.074,0.0301,-0.0248,0.0007,NONE,11
1770475753.5921206,49:13.6,-6.199,7.19,-0.108,0.0314,-0.0306,0.0116,NONE,12
1770475753.593546,49:13.6,-6.175,7.228,-0.069,0.0322,-0.0277,0.0175,NONE,13
1770475753.5951877,49:13.6,-6.202,7.238,-0.163,0.0321,-0.0222,0.0177,NONE,14
1770475753.5966513,49:13.6,-6.142,7.264,-0.151,0.031,-0.0115,0.0261,NONE,15
1770475753.5977998,49:13.6,-6.161,7.247,-0.108,0.0333,-0.0071,0.0285,NONE,16
1770475753.6003666,49:13.6,-6.144,7.25,-0.132,0.0252,-0.0048,0.0322,NONE,17
1770475753.6028168,49:13.6,-6.163,7.233,-0.187,0.0274,0.0012,0.0418,NONE,18
1770475753.6043043,49:13.6,-6.135,7.297,-0.187,0.0273,0.0001,0.0466,NONE,19
1770475753.6057224,49:13.6,-6.115,7.235,-0.136,0.0244,0.0012,0.0449,NONE,20
1770475753.6129496,49:13.6,-6.089,7.24,-0.17,0.0314,0.0064,0.036,NONE,21
1770475753.6186314,49:13.6,-6.068,7.209,-0.172,0.0308,0.0081,0.0232,NONE,22
1770475753.6256106,49:13.6,-6.092,7.247,-0.16,0.037,0.0056,0.0332,NONE,23
1770475753.6325507,49:13.6,-6.082,7.266,-0.112,0.043,0.0053,0.0426,NONE,24
1770475753.6404245,49:13.6,-6.089,7.34,-0.175,0.0456,0.0052,0.0342,NONE,25
1770475753.646801,49:13.6,-6.084,7.4,-0.23,0.038,0.0124,0.0156,NONE,26
1770475753.6538694,49:13.7,-6.19,7.429,-0.28,0.0369,0.0113,-0.0023,NONE,27
1770475753.6612933,49:13.7,-6.24,7.343,-0.227,0.026,0.0124,-0.0025,NONE,28
1770475753.6677568,49:13.7,-6.173,7.309,-0.328,0.0175,0.0027,0.0183,NONE,29
1770475753.6748848,49:13.7,-6.18,7.345,-0.361,0.0184,-0.0063,0.0377,NONE,30
1770475753.6818445,49:13.7,-6.12,7.328,-0.342,0.014,-0.0131,0.0362,NONE,31
1770475753.6888964,49:13.7,-6.036,7.293,-0.318,0.0175,-0.0097,0.0141,NONE,32
1770475753.6960757,49:13.7,-6.008,7.261,-0.211,0.0241,-0.0067,-0.0183,NONE,33
1770475753.7032118,49:13.7,-6.056,7.25,-0.263,0.026,-0.0004,-0.04,NONE,34
1770475753.7099962,49:13.7,-6.056,7.235,-0.285,0.029,-0.01,-0.0364,NONE,35
1770475753.716943,49:13.7,-6.111,7.214,-0.239,0.0322,-0.0187,-0.0135,NONE,36
1770475753.7249198,49:13.7,-6.087,7.247,-0.297,0.0241,-0.0296,0.0124,NONE,37
1770475753.7309008,49:13.7,-6.103,7.202,-0.227,0.0282,-0.0292,0.0265,NONE,38
1770475753.738009,49:13.7,-6.135,7.199,-0.227,0.0292,-0.0284,0.0333,NONE,39
1770475753.7448838,49:13.7,-6.142,7.226,-0.179,0.0329,-0.0179,0.0278,NONE,40
1770475753.7518632,49:13.8,-6.19,7.254,-0.285,0.0316,-0.0025,0.0188,NONE,41
1770475753.758603,49:13.8,-6.149,7.233,-0.249,0.0245,0.0016,0.0097,NONE,42
1770475753.7659698,49:13.8,-6.17,7.264,-0.311,0.0201,0.0059,0.0165,NONE,43
1770475753.772949,49:13.8,-6.168,7.261,-0.11,0.0205,-0.0015,0.0262,NONE,44
1770475753.779892,49:13.8,-6.08,7.295,-0.062,0.024,0.0023,0.0378,NONE,45
1770475753.7868106,49:13.8,-6.077,7.293,-0.189,0.0221,-0.0111,0.0262,NONE,46
1770475753.7943535,49:13.8,-6.154,7.388,-0.115,0.0179,-0.0129,0.028,NONE,47
1770475753.8010173,49:13.8,-6.106,7.314,-0.187,0.0119,-0.0226,0.0261,NONE,48
1770475753.8077822,49:13.8,-6.092,7.261,-0.12,0.0173,-0.0149,0.0292,NONE,49
1770475753.8149893,49:13.8,-6.168,7.223,-0.172,0.026,-0.0257,0.0326,NONE,50
1770475753.8219626,49:13.8,-6.158,7.273,-0.156,0.0309,-0.0155,0.0338,NONE,51
1770475753.829278,49:13.8,-6.087,7.35,-0.026,0.0205,0.0091,0.0089,NONE,52
1770475753.8357835,49:13.8,-6.072,7.254,-0.141,0.035,0.0105,-0.027,NONE,53
1770475753.8427963,49:13.8,-6.158,7.285,-0.203,0.0308,0.0233,-0.0465,NONE,54
1770475753.8499181,49:13.8,-6.158,7.278,-0.237,0.0293,0.0176,-0.0572,NONE,55
1770475753.8568256,49:13.9,-6.158,7.223,-0.167,0.0232,0.0095,-0.0354,NONE,56
1770475753.8642862,49:13.9,-6.182,7.185,-0.129,0.0248,-0.0044,-0.0049,NONE,57
1770475753.8708365,49:13.9,-6.144,7.302,-0.127,0.0334,-0.016,0.0336,NONE,58
1770475753.878099,49:13.9,-6.048,7.333,-0.136,0.0242,-0.0145,0.0342,NONE,59
1770475754,49:13.9,-6.051,7.4,-0.098,0.0242,0.0001,0.032,NONE,60
1770475753.8918622,49:13.9,-6.015,7.288,-0.304,0.0482,-0.0135,-0.0059,NONE,61
1770475753.8988001,49:13.9,6.17,7.41,-0.196,0.0289,0,-0.0176,NONE,62
1770475753.9061785,49:13.9,-6.115,7.319,-0.218,0.0192,-0.0065,-0.0077,NONE,63
1770475753.9125652,49:13.9,-6.051,7.175,-0.28,0.0001,0.0041,0.0045,NONE,64
1770475753.9198132,49:13.9,-5.989,7.355,-0.29,-0.0137,0.0337,-0.0297,NONE,65
1770475753.9282486,49:13.9,-6.211,7.214,-0.211,0.0433,-0.0095,0.0157,NONE,66
1770475753.9348247,49:13.9,-6.142,7.154,-0.213,0.0181,0.0048,0.0023,NONE,67
1770475753.9421463,49:13.9,-6.123,7.206,-0.196,0.0241,-0.0012,0.0189,NONE,68
1770475753.9489512,49:13.9,-6.187,7.214,-0.182,0.0233,-0.0059,0.0221,NONE,69
1770475753.9558604,49:14.0,-6.178,7.261,-0.189,0.022,-0.0079,0.0216,NONE,70
1770475753.9627562,49:14.0,-6.185,7.29,-0.127,0.0226,-0.0093,0.0256,NONE,71
1770475753.9702199,49:14.0,-6.161,7.216,-0.22,0.0185,-0.0108,0.0109,NONE,72
1770475753.9768202,49:14.0,-6.149,7.127,-0.11,0.0173,-0.0099,0.004,NONE,73
1770475753.9837987,49:14.0,-6.221,7.13,-0.151,0.0241,-0.0157,0.0143,NONE,74
1770475754,49:14.0,-6.192,7.139,-0.191,0.0341,-0.0213,0.0516,NONE,75
1770475753.9980185,49:14.0,-6.225,7.159,-0.196,0.0277,-0.0141,0.0718,NONE,76
1770475754.0048668,49:14.0,-6.24,7.297,-0.232,0.0185,-0.025,0.0749,NONE,77
1770475754.0118647,49:14.0,-6.216,7.209,-0.337,0.0069,-0.0233,0.0909,NONE,78
1770475754.0187845,49:14.0,-6.106,7.302,-0.134,0.0193,-0.012,0.0645,NONE,79
1770475754.0261467,49:14.0,-6.046,7.183,-0.213,0.0073,-0.012,0.0317,NONE,80
1770475754.034445,49:14.0,-6.051,7.245,-0.158,0.0071,-0.0112,0.0209,NONE,81
1770475754.040038,49:14.0,-6.053,7.293,-0.191,0.0059,-0.0296,0.0401,NONE,82
1770475754.0469499,49:14.0,-6.137,7.317,-0.223,0.0156,-0.0441,0.0718,NONE,83
1770475754.054548,49:14.1,-6.041,7.498,-0.232,0.0033,-0.0561,0.085,NONE,84
1770475754.0612063,49:14.1,-5.943,7.506,-0.141,-0.0033,-0.053,0.0659,NONE,85
1770475754.0679128,49:14.1,-5.974,7.551,-0.208,-0.0051,-0.0397,0.027,NONE,86
1770475754.074906,49:14.1,-5.986,7.458,-0.196,-0.0032,-0.0173,0.0072,NONE,87
1770475754.0821383,49:14.1,-6.013,7.424,-0.175,-0.0065,-0.0051,-0.0164,NONE,88
1770475754.0886412,49:14.1,-6.017,7.288,-0.22,0.0009,0.0019,0.0124,NONE,89
1770475754.0958836,49:14.1,-5.984,7.278,-0.261,0.0067,0.0052,0.0488,NONE,90
1770475754.1026897,49:14.1,-5.895,7.297,-0.22,0.0068,0.0033,0.0829,NONE,91
1770475754.1098146,49:14.1,-5.941,7.36,-0.074,0.0093,0.0083,0.0762,NONE,92
1770475754.1173353,49:14.1,-5.864,7.489,-0.067,0.0163,0.0109,0.0612,NONE,93
1770475754.1250832,49:14.1,-5.833,7.51,-0.048,0.0256,0.036,-0.0057,NONE,94
1770475754.1317368,49:14.1,-5.926,7.508,-0.026,0.0257,0.0537,-0.0683,NONE,95
1770475754.1387858,49:14.1,-5.986,7.446,-0.096,0.0188,0.0655,-0.1187,NONE,96
1770475754.1458654,49:14.1,-6.092,7.357,-0.086,0.0101,0.0633,-0.1266,NONE,97
1770475754.1528924,49:14.2,-6.135,7.288,-0.194,0.0045,0.0518,-0.0917,NONE,98
1770475754.1597238,49:14.2,-6.197,7.144,-0.263,0.0061,0.0473,-0.048,NONE,99
1770475754.1667237,49:14.2,-6.218,7.202,-0.187,0.0075,0.0298,-0.0169,NONE,100
1770475754.1740165,49:14.2,-6.237,7.166,-0.287,0.0103,0.0304,-0.012,NONE,101
1770475754.1807082,49:14.2,-6.194,7.044,-0.256,0.0093,0.0304,-0.0188,NONE,102
1770475754.1880376,49:14.2,-6.175,7.082,-0.22,0.0232,0.0297,-0.0107,NONE,103
1770475754.1949365,49:14.2,-6.216,7.116,-0.215,0.0276,0.0196,-0.0011,NONE,104
1770475754.2017276,49:14.2,-6.187,7.094,-0.191,0.026,0.0073,0.0097,NONE,105
1770475754.208729,49:14.2,-6.225,7.144,-0.225,0.0429,-0.0108,0.0069,NONE,106
1770475754.2159038,49:14.2,-6.218,7.173,-0.1,0.0412,-0.0165,-0.0237,NONE,107
1770475754.2229962,49:14.2,-6.214,7.178,-0.134,0.0424,-0.0288,-0.0424,NONE,108
1770475754.2300813,49:14.2,-6.285,7.046,-0.103,0.0424,-0.0292,-0.0589,NONE,109
1770475754.2370172,49:14.2,-6.348,7.07,-0.218,0.0417,-0.0494,-0.0269,NONE,110
1770475754.2438676,49:14.2,-6.417,7.082,-0.167,0.0318,-0.0625,0.0181,NONE,111
1770475754.2509623,49:14.2,-6.489,7.106,-0.179,0.0312,-0.0797,0.0638,NONE,112
1770475754.2592683,49:14.3,-6.424,7.092,-0.208,0.0337,-0.0774,0.0911,NONE,113
1770475754.2656803,49:14.3,-6.431,7.199,-0.163,0.0345,-0.0818,0.0953,NONE,114
1770475754.2726948,49:14.3,-6.369,7.194,-0.189,0.0285,-0.0604,0.0573,NONE,115
1770475754.279652,49:14.3,-6.386,7.168,-0.177,0.0272,-0.0448,0.0365,NONE,116
1770475754,49:14.3,-6.352,7.156,-0.089,0.036,-0.0424,0.0278,NONE,117
1770475754.2937632,49:14.3,-6.386,7.116,-0.172,0.0334,-0.0433,0.0493,NONE,118
1770475754.300777,49:14.3,-6.364,7.089,-0.129,0.0377,-0.0566,0.0831,NONE,119
1770475754.3078263,49:14.3,-6.343,7.214,-0.081,0.0332,-0.0738,0.1151,NONE,120
1770475754.315304,49:14.3,-6.276,7.233,-0.045,0.0308,-0.0855,0.1278,NONE,121
1770475754.3234808,49:14.3,-6.178,7.206,0.005,0.0316,-0.091,0.1066,NONE,122
1770475754.3298025,49:14.3,-6.168,7.257,-0.002,0.0334,-0.0771,0.0773,NONE,123
1770475754.3368623,49:14.3,-6.197,7.261,-0.01,0.0308,-0.085,0.0786,NONE,124
1770475754.3438087,49:14.3,-6.182,7.238,-0.091,0.0353,-0.0866,0.0866,NONE,125
1770475754.3507743,49:14.4,-6.127,7.278,-0.06,0.0203,-0.0938,0.1118,NONE,126
1770475754.3576162,49:14.4,-6.111,7.364,0.06,0.0132,-0.0919,0.1378,NONE,127
1770475754.3650594,49:14.4,-6.089,7.46,-0.024,0.024,-0.0914,0.1314,NONE,128
1770475754.3718991,49:14.4,-6.022,7.57,-0.022,0.0215,-0.0783,0.1063,NONE,129
1770475754.3788629,49:14.4,-5.998,7.458,0.041,0.0203,-0.0552,0.0581,NONE,130
1770475754.386873,49:14.4,-5.91,7.415,0.081,0.0248,0.0035,-0.0063,NONE,131
1770475754.393968,49:14.4,-6.022,7.4,-0.045,0.041,-0.0023,-0.0353,NONE,132
1770475754.3999286,49:14.4,-6.123,7.434,0.022,0.0368,0.0073,-0.0177,NONE,133
1770475754,49:14.4,-6.056,7.235,-0.019,0.0453,0.0207,0.0091,NONE,134
1770475754.4139924,49:14.4,-5.84,7.407,-0.232,-0.0079,0.0468,-0.0342,NONE,135
1770475754.4210324,49:14.4,-6.089,7.393,-0.067,0.0373,0.0213,-0.016,NONE,136
1770475754.4287217,49:14.4,-6.027,7.319,-0.136,0.0068,0.0309,0.0016,NONE,137
1770475754.434746,49:14.4,-5.84,7.161,-0.175,0.0192,0.0325,0.033,NONE,138
1770475754.441698,49:14.4,-5.847,7.116,-0.067,0.0253,0.0428,0.027,NONE,139
1770475754.4486737,49:14.4,-5.85,7.233,-0.153,0.0386,0.0446,0.0308,NONE,140
1770475754.456688,49:14.5,-5.902,7.328,-0.244,0.0426,0.0514,0.0313,NONE,141
1770475754.4637218,49:14.5,-5.879,7.338,-0.203,0.045,0.0734,-0.0048,NONE,142
1770475754.470764,49:14.5,-5.91,7.314,-0.213,0.0598,0.0842,-0.0426,NONE,143
1770475754.4776716,49:14.5,-5.974,7.386,-0.225,0.0633,0.0973,-0.0661,NONE,144
1770475754.4846864,49:14.5,-6.072,7.388,-0.297,0.0593,0.0965,-0.0585,NONE,145
1770475754.4916816,49:14.5,-6.125,7.446,-0.297,0.0508,0.0862,-0.0281,NONE,146
1770475754.4986994,49:14.5,-6.123,7.47,-0.364,0.0521,0.0612,0.0029,NONE,147
1770475754.5059156,49:14.5,-6.106,7.541,-0.416,0.033,0.0412,0.0309,NONE,148
1770475754.5126257,49:14.5,-6.008,7.556,-0.378,0.0236,0.0278,0.0204,NONE,149
1770475754.519781,49:14.5,-5.953,7.565,-0.333,0.0217,0.0316,-0.0236,NONE,150
1770475754.526834,49:14.5,-5.969,7.45,-0.323,0.0285,0.0466,-0.0803,NONE,151
1770475754.5336366,49:14.5,-5.953,7.343,-0.318,0.0448,0.0577,-0.1348,NONE,152
1770475754.540785,49:14.5,-6.022,7.199,-0.285,0.0509,0.0711,-0.1548,NONE,153
1770475754.547621,49:14.5,-6.135,7.113,-0.23,0.0493,0.0641,-0.1203,NONE,154
1770475754.5546305,49:14.6,-6.202,7.089,-0.194,0.0529,0.042,-0.0195,NONE,155
1770475754.561676,49:14.6,-6.178,7.127,-0.225,0.0509,0.0145,0.0698,NONE,156
1770475754.5688121,49:14.6,-6.144,7.336,-0.105,0.038,-0.0035,0.118,NONE,157
1770475754.5758421,49:14.6,-6.178,7.482,-0.242,0.0242,-0.0168,0.124,NONE,158
1770475754.5828454,49:14.6,-6.182,7.635,-0.208,0.0024,-0.0226,0.0798,NONE,159
1770475754.5899875,49:14.6,-6.125,7.608,-0.223,-0.0039,-0.0052,-0.0189,NONE,160
1770475754.5967922,49:14.6,-6.101,7.41,-0.251,0.0031,0.0143,-0.1026,NONE,161
1770475754.6038465,49:14.6,-6.147,7.271,-0.325,0.0088,0.0265,-0.1633,NONE,162
1770475754.6108868,49:14.6,-6.292,7.092,-0.335,0.0172,0.014,-0.1299,NONE,163
1770475754.6177409,49:14.6,-6.283,6.917,-0.263,0.0256,-0.0091,-0.0482,NONE,164
1770475754.6248472,49:14.6,-6.261,6.915,-0.246,0.0079,-0.0278,0.0241,NONE,165
1770475754.6318913,49:14.6,-6.194,6.922,-0.141,0.0115,-0.0496,0.0778,NONE,166
1770475754.6393743,49:14.6,-6.166,7.005,-0.093,0.0229,-0.037,0.097,NONE,167
1770475754.645979,49:14.6,-6.182,7.127,-0.096,0.0472,-0.0257,0.0518,NONE,168
1770475754.6528745,49:14.7,-6.209,7.149,-0.105,0.04,-0.0229,-0.0001,NONE,169
1770475754.6601405,49:14.7,-6.319,7.163,0.012,0.0541,-0.0099,-0.0474,NONE,170
1770475754.6670022,49:14.7,-6.34,7.139,-0.024,0.0596,-0.0105,-0.0621,NONE,171
1770475754.6740909,49:14.7,-6.426,7.125,-0.057,0.0545,-0.0286,-0.0536,NONE,172
1770475754.680973,49:14.7,-6.453,7.13,-0.029,0.0489,-0.0554,-0.0169,NONE,173
1770475754.6879013,49:14.7,-6.376,7.139,-0.084,0.0301,-0.0891,0.0305,NONE,174
1770475754.6954317,49:14.7,-6.376,7.118,-0.05,0.0229,-0.1186,0.0797,NONE,175
1770475754.7018623,49:14.7,-6.338,7.163,-0.007,0.0488,-0.1103,0.1102,NONE,176
1770475754.7086604,49:14.7,-6.168,7.192,-0.077,0.0569,-0.0902,0.0819,NONE,177
1770475754.7160091,49:14.7,-6.178,7.23,-0.105,0.0497,-0.0642,-0.0059,NONE,178
1770475754.7229652,49:14.7,-6.292,7.199,-0.201,0.0449,-0.0418,-0.0645,NONE,179
1770475754.7300959,49:14.7,-6.431,7.18,-0.208,0.0328,-0.0328,-0.0485,NONE,180
1770475754.736917,49:14.7,-6.525,7.127,-0.199,0.0348,-0.0302,0.0049,NONE,181
1770475754.7437701,49:14.7,-6.407,7.221,-0.234,0.0332,-0.0333,0.0588,NONE,182
1770475754.7507918,49:14.8,-6.273,7.218,-0.251,0.0185,-0.0352,0.0722,NONE,183
1770475754.7579439,49:14.8,-6.247,7.238,-0.299,0.0125,-0.0192,0.0529,NONE,184
1770475754.7646413,49:14.8,-6.132,7.206,-0.34,0.0089,0.0037,0.0161,NONE,185
1770475754.7718039,49:14.8,-6.17,7.233,-0.34,0.0133,0.0169,-0.0164,NONE,186
1770475754.7787642,49:14.8,-6.192,7.183,-0.328,0.0209,0.0269,-0.0143,NONE,187
1770475754.786419,49:14.8,-6.24,7.19,-0.426,0.0201,0.0167,0.02,NONE,188
1770475754.7937603,49:14.8,-6.216,7.271,-0.407,0.0281,0.0091,0.048,NONE,189
1770475754.8005395,49:14.8,-6.07,7.214,-0.455,0.0129,0.0077,0.0432,NONE,190
1770475754.8076036,49:14.8,-6.077,7.18,-0.359,0.0113,0.0133,0.0237,NONE,191
1770475754.8146083,49:14.8,-6.096,7.104,-0.431,0.0226,0.01,0.0072,NONE,192
1770475754.8216045,49:14.8,-6.077,7.087,-0.282,0.0336,0.0216,0.0003,NONE,193
1770475754.8287413,49:14.8,-6.089,7.144,-0.28,0.04,0.0256,-0.0189,NONE,194
1770475754.8357189,49:14.8,-5.998,7.142,-0.285,0.0336,0.035,-0.0079,NONE,195
1770475754.8426836,49:14.8,-6.092,7.214,-0.268,0.0308,0.0288,0.0024,NONE,196
1770475754.849906,49:14.8,-5.998,7.082,-0.34,0.055,-0.0004,0.0064,NONE,197
1770475754.8571544,49:14.9,-5.886,7.058,-0.321,0.0025,-0.0333,0.0008,NONE,198
1770475754.8638597,49:14.9,-6.206,7.486,-0.065,0.049,-0.0053,-0.0621,NONE,199
1770475754.870786,49:14.9,-6.084,7.113,-0.141,0.0366,0.028,-0.0392,NONE,200
1770475754.877878,49:14.9,-6.036,7.161,-0.23,0.0119,0.0057,-0.0671,NONE,201
1770475754.8849254,49:14.9,1.957,19.599,-14.133,-4.3657,4.3656,-4.3657,NONE,202
1770475754.8919172,49:14.9,5.072,12.039,-1.101,2.7003,-3.5292,-2.5646,NONE,203
1770475754.898939,49:14.9,-3.962,10.633,-1.017,-0.3344,0.9761,-4.3657,NONE,204
1770475754.906206,49:14.9,-11.121,6.266,2.428,-0.4178,1.4436,-4.3657,NONE,205
1770475754.9127977,49:14.9,-7.498,9.164,0.993,-0.7324,1.8438,-3.9202,NONE,206
1770475754.9198148,49:14.9,-5.022,9.03,-0.136,-2.6157,0.6059,2.8492,NONE,207
1770475754.9272227,49:14.9,-19.6,-8.525,-0.266,-1.6515,0.3933,-2.8486,NONE,208
1770475754.934325,49:14.9,-7.13,10.429,-2.622,-0.9433,-0.2501,-1.7568,NONE,209
1770475754.9407766,49:14.9,-7.522,7.747,-7.027,-3.6408,-0.2581,3.7286,NONE,210
1770475754.947786,49:14.9,-8.922,2.751,-4.055,-3.3821,0.0282,2.4153,NONE,211
1770475754.955058,49:15.0,-9.814,1.653,2.85,-2.1635,-0.2304,0.5276,NONE,212
1770475754.9618094,49:15.0,-9.41,4.656,2.251,-1.366,-0.7115,-2.2304,NONE,213
1770475754.969066,49:15.0,-7.618,6.97,1.278,-1.0539,-0.7221,-1.1238,NONE,214
1770475754.976357,49:15.0,-7.977,6.905,2.007,-1.1233,-0.4513,-0.0131,NONE,215
1770475754.9829779,49:15.0,-7.742,6.137,2.436,-1.1531,-0.2434,0.7135,NONE,216
1770475754.9897664,49:15.0,-8.257,4.929,3.67,-0.6274,-0.5809,0.757,NONE,217
1770475754.9967268,49:15.0,-8.929,4.338,3.601,0.0469,-0.5937,0.0446,NONE,218
1770475755.003737,49:15.0,-7.489,6.06,0.646,0.4944,-0.9642,-0.6158,NONE,219
1770475755.0106277,49:15.0,-3.67,7.91,8.953,-1.2986,1.4358,0.9515,NONE,220
1770475755.017949,49:15.0,-10.692,3.163,12.365,-1.1603,-1.5529,4.3656,NONE,221
1770475755.0248556,49:15.0,-4.546,2.988,2.517,-0.5792,-1.9016,3.7844,NONE,222
1770475755.0316365,49:15.0,-0.306,5.367,3.436,-0.7621,0.9469,2.8353,NONE,223
1770475755.0387173,49:15.0,-8.19,5.764,7.888,-0.7377,0.0657,4.3656,NONE,224
1770475755.047247,49:15.0,3.17,1.024,-9.46,0.373,-1.5669,4.3656,NONE,225
1770475755.053875,49:15.1,-1.735,4.077,-2.421,1.495,4.3656,-4.3657,NONE,226
1770475755.0613313,49:15.1,-3.412,12.953,-0.912,2.2809,0.9515,-0.7464,NONE,227
1770475755.0677087,49:15.1,-7.513,15.186,-8.209,0.5782,0.2972,3.5186,NONE,228
1770475755.0749166,49:15.1,-8.233,18.454,-8.723,0.7083,0.2276,-0.3535,NONE,229
1770475755.082146,49:15.1,-9.776,15.86,2.194,-0.1982,0.038,-1.1,NONE,230
1770475755.089022,49:15.1,-6.271,9.372,3.603,-0.33,-0.5452,-0.483,NONE,231
1770475755,49:15.1,-3.586,4.491,4.309,-0.0044,-0.9423,-0.472,NONE,232
1770475755.1030123,49:15.1,-1.383,2.749,2.754,1.0996,-0.553,-2.2312,NONE,233
1770475755.1102123,49:15.1,-0.938,5.441,0.263,1.9827,-0.2069,-3.0105,NONE,234
1770475755.116776,49:15.1,-3.773,5.816,-1.337,2.1241,0.5315,-2.6143,NONE,235
1770475755.124204,49:15.1,-12.051,6.12,-3.405,2.8125,-0.8344,-3.6929,NONE,236
1770475755.1321526,49:15.1,17.313,10.049,-3.462,1.6693,-1.014,-1.4197,NONE,237
1770475755.1377296,49:15.1,-6.115,7.206,-1.66,0.9086,-1.6902,0.9646,NONE,238
1770475755.1447845,49:15.1,-2.271,5.52,0.976,-0.3513,-0.3118,0.3199,NONE,239
1770475755.1517851,49:15.2,-9.252,2.129,1.129,-0.3335,-0.4431,0.0807,NONE,240
1770475755.1589065,49:15.2,-8.211,8.309,-0.392,-0.6452,-0.1889,0.6932,NONE,241
1770475755.1665175,49:15.2,-6.173,8.431,-0.407,-0.9722,0.2013,0.4707,NONE,242
1770475755.1744435,49:15.2,-12.896,2.388,2.194,-1.3899,-0.3016,-0.4582,NONE,243
1770475755.1808007,49:15.2,0.773,13.329,-1.694,-1.0404,1.4041,2.9192,NONE,244
1770475755.1877086,49:15.2,-7.979,4.67,3.256,0.0103,0.213,0.064,NONE,245
1770475755.1948633,49:15.2,-6.611,6.058,1.258,0.2847,-0.0811,0.8224,NONE,246
1770475755.2020066,49:15.2,-5.685,6.202,1.605,0.9835,-0.2178,0.6245,NONE,247
1770475755.2086678,49:15.2,-5.783,7.711,2.019,0.8467,0.2585,0.2934,NONE,248
1770475755.2158036,49:15.2,-5.398,9.073,-1.67,0.704,0.037,-0.1745,NONE,249
1770475755.2227612,49:15.2,-6.245,6.919,-1.364,0.487,0.052,-0.5939,NONE,250
1770475755.2298317,49:15.2,-6.807,6.453,0.749,0.6647,-0.3657,0.4211,NONE,251
1770475755.2368824,49:15.2,-5.919,5.809,0.156,0.7035,-0.4509,0.6137,NONE,252
1770475755.2436712,49:15.2,-6.087,7.264,0.818,0.9954,-1.0343,0.827,NONE,253
1770475755.2509975,49:15.3,-2.038,14.021,-3.417,0.2887,-1.5005,-0.6303,NONE,254
1770475755.2578137,49:15.3,-5.429,7.19,-4,-1.0729,0.7542,-1.4538,NONE,255
1770475755.2647119,49:15.3,-7.687,1.206,2.199,1.2628,-1.8819,1.1803,NONE,256
1770475755.2717817,49:15.3,-2.979,8.881,-1.125,1.2646,-0.7877,1.9558,NONE,257
1770475755.278757,49:15.3,-7.75,9.594,5.139,0.5825,-0.0469,0.7469,NONE,258
1770475755.2857306,49:15.3,-6.965,8.836,0.012,0.0085,-0.0277,0.2822,NONE,259
1770475755.293192,49:15.3,-6.943,5.962,1.06,0.6627,-0.4223,0.7807,NONE,260
1770475755.3007338,49:15.3,-7.319,6.204,1.782,2.1129,-0.029,1.4574,NONE,261
1770475755.3075638,49:15.3,-5.711,8.061,1.05,3.8792,-0.073,1.3235,NONE,262
1770475755,49:15.3,-2.821,9.494,-1.507,4.3656,0.3223,-0.383,NONE,263
1770475755.3217428,49:15.3,4.118,12.726,-13.456,4.3656,3.3969,-2.9451,NONE,264
1770475755.3288133,49:15.3,1.713,14.781,-13.499,4.3656,2.5756,-4.3657,NONE,265
1770475755.3357987,49:15.3,6.187,17.765,-17.662,4.3656,3.3942,-4.3657,NONE,266
1770475755.3430793,49:15.3,-3.481,17.961,-11.788,3.8192,3.1784,-2.0022,NONE,267
1770475755.3498437,49:15.3,-4.493,16.954,-9.731,1.3408,1.937,0.8932,NONE,268
1770475755,49:15.4,-8.257,14.918,-7.161,-1.3476,1.2937,3.8023,NONE,269
1770475755.3647711,49:15.4,-11.645,10.879,-2.517,-2.9965,-0.2654,4.3656,NONE,270
1770475755.3712258,49:15.4,-8.391,10.068,-1.184,-4.3657,-1.6633,4.3656,NONE,271
1770475755.3779514,49:15.4,-7.087,19.599,10.869,3.8396,4.3656,-4.3657,NONE,272
1770475755.3851361,49:15.4,-19.6,-19.6,19.599,4.3656,-2.1405,4.3656,NONE,273
1770475755,49:15.4,-19.6,-7.809,5.68,4.3656,-4.3657,4.3656,NONE,274
1770475755.3989482,49:15.4,-19.6,19.599,-19.6,2.6945,4.3656,4.3656,NONE,275
1770475755.4060397,49:15.4,-7.513,19.599,-19.6,0.0517,-3.4743,4.3656,NONE,276
1770475755.4127939,49:15.4,8.506,10.621,-8.479,0.6186,-4.3657,4.3656,NONE,277
1770475755.419818,49:15.4,5.891,4.517,2.462,3.2574,-4.3657,4.3656,NONE,278
1770475755.4269001,49:15.4,-2.625,11.795,-0.852,4.0342,-4.3657,2.561,NONE,279
1770475755.4338667,49:15.4,-3.079,6.685,-8.436,4.3656,-4.3657,2.561,NONE,280
1770475755.4411306,49:15.4,-3.089,6.582,-5.436,2.7367,-4.3657,2.6518,NONE,281
1770475755.4479167,49:15.4,-3.407,7.187,-3.06,0.9859,-4.3657,3.4576,NONE,282
1770475755.4548037,49:15.5,-2.601,6.151,-3.153,-1.3972,-3.4959,3.6945,NONE,283
1770475755.4619982,49:15.5,-1.904,6.663,-3.675,-2.6822,-2.1626,4.0302,NONE,284
1770475755.4689465,49:15.5,0.409,4.264,-6.441,-3.3064,-1.6193,3.346,NONE,285
1770475755.4757898,49:15.5,0.904,11.027,-1.656,-3.9338,-1.4619,1.9664,NONE,286
1770475755.4832473,49:15.5,4.187,10.001,-1.854,-3.2246,-0.7269,-0.7621,NONE,287
1770475755.4901562,49:15.5,2.546,13.109,-0.395,-2.2196,-0.3184,-3.4872,NONE,288
1770475755.497278,49:15.5,-0.234,11.791,-1.665,-0.1139,-0.194,-4.3657,NONE,289
1770475755.5038257,49:15.5,4.706,6.264,-7.494,2.798,-0.0317,-4.3657,NONE,290
1770475755.5109713,49:15.5,-5.879,15.262,5.185,2.229,0.35,-4.3657,NONE,291
1770475755.5177765,49:15.5,-13.482,15.64,9.625,1.831,3.1208,-4.3657,NONE,292
1770475755.524619,49:15.5,-5.118,4.747,0.959,2.3426,4.2863,-4.3657,NONE,293
1770475756,49:15.5,-8.35,5.501,-2.132,2.7499,4.3656,-4.3657,NONE,294
1770475755.5387754,49:15.5,-8.185,2.622,-3.831,2.9792,3.8185,-4.3657,NONE,295
1770475755.5459118,49:15.5,-7.029,1.519,-2.462,3.6625,2.0443,-2.9286,NONE,296
1770475755.552855,49:15.6,-9.534,5.39,-3.704,3.8978,2.5107,-0.0281,NONE,297
1770475755.5597117,49:15.6,-6.19,5.328,-6.005,3.2115,2.1088,0.9361,NONE,298
1770475755.5669668,49:15.6,-4.694,6.182,-10.087,3.2912,1.2678,1.4302,NONE,299
1770475755.5739195,49:15.6,-6.376,6.336,-8.199,0.164,-0.499,1.804,NONE,300
1770475756,49:15.6,-5.079,7.752,-6.826,-0.4341,-0.3741,1.4342,NONE,301
1770475755.588946,49:15.6,-4.146,8.515,-5.338,-0.336,0.8379,0.9607,NONE,302
1770475755.5952168,49:15.6,-5.443,7.635,-6.314,1.1245,1.3582,0.7024,NONE,303
1770475755.6022825,49:15.6,-2.653,7.34,-3.689,2.0837,2.3234,-0.5935,NONE,304
1770475755.6099992,49:15.6,-5.003,11.999,-5.072,2.5691,4.3656,-2.0897,NONE,305
1770475755.617031,49:15.6,-0.567,4.493,-0.842,3.7367,3.9415,-1.6976,NONE,306
1770475755.6240458,49:15.6,-3.082,15.523,-13.016,-0.0075,2.8866,-0.9438,NONE,307
1770475755.631228,49:15.6,-6.278,12.121,-19.6,-4.3657,0.4183,-2.5157,NONE,308
1770475755.6385584,49:15.6,-14.353,19.599,-19.6,-4.3657,-3.2811,-0.5437,NONE,309
1770475755.6449385,49:15.6,1.058,19.599,-19.6,-4.3657,-4.3657,4.3656,NONE,310
1770475755.6517622,49:15.7,-4.907,7.886,-19.6,-4.3657,-3.3875,4.3656,NONE,311
1770475755.6587822,49:15.7,-7.513,-11.963,-8.812,-4.3657,0.1061,4.3656,NONE,312
1770475755.6661897,49:15.7,-19.6,-19.6,19.599,-4.3657,-4.3657,-2.8525,NONE,313
1770475755.6733592,49:15.7,13.37,12.178,17.298,-1.6904,0.3114,1.1058,NONE,314
1770475755.6795902,49:15.7,11.47,6.556,0.864,-0.3527,4.3656,4.3656,NONE,315
1770475755.6872876,49:15.7,-19.31,-1.06,5.931,4.3656,-4.3657,-4.3657,NONE,316
1770475755.6947963,49:15.7,6.343,19.599,-5.079,4.3656,-1.543,-4.3657,NONE,317
1770475755.7009246,49:15.7,19.299,19.599,-15.616,-0.7438,3.8432,1.9501,NONE,318
1770475755.7077088,49:15.7,-3.003,17.631,1.878,-2.4468,-3.5352,1.344,NONE,319
1770475755.7152412,49:15.7,12.525,17.928,-0.089,-4.3657,1.5757,1.4031,NONE,320
1770475755.7225668,49:15.7,-11.53,0.22,10.97,-3.8101,-0.7987,1.6442,NONE,321
1770475755.7289479,49:15.7,-1.053,10.152,1.318,-3.0888,-2.1361,1.4769,NONE,322
1770475755.7358541,49:15.7,1.29,-3.73,-4.072,-2.2852,-0.5866,-0.4446,NONE,323
1770475755.7431965,49:15.7,-3.06,11.604,-1.665,-1.2492,-1.2067,-0.6631,NONE,324
1770475755.7501228,49:15.8,-3.414,12.494,-4.429,-0.5291,-1.6991,-1.1041,NONE,325
1770475755.757269,49:15.8,-2.948,16.729,-7.537,-0.2967,-2.1933,-1.6405,NONE,326
1770475755.7641158,49:15.8,-0.285,19.599,-9.417,-0.7837,-2.0146,-1.356,NONE,327
1770475755.7709668,49:15.8,1.182,16.382,-9.589,-1.24,-0.7061,-0.9906,NONE,328
1770475755.778345,49:15.8,-1.419,13.726,-4.96,-1.667,-0.1688,-1.0714,NONE,329
1770475755.7850337,49:15.8,1.065,10.649,-4.163,-1.6014,0.1127,-1.1505,NONE,330
1770475755.791701,49:15.8,1.902,8.204,-2.787,-1.7509,0.6336,-0.6206,NONE,331
1770475755.7986944,49:15.8,1.402,10.573,-2.589,-1.8632,0.7152,0.4545,NONE,332
1770475755.8058653,49:15.8,1.402,12.262,-3.316,-2.0816,0.7921,1.5435,NONE,333
1770475755.8133512,49:15.8,0.876,12.774,-2.479,-2.5578,1.0921,2.4697,NONE,334
1770475755.8208702,49:15.8,0.206,11.939,-3.273,-3.116,1.4645,3.2604,NONE,335
1770475755.8279502,49:15.8,-0.225,11.64,-5.099,-3.3027,1.3712,3.3738,NONE,336
1770475755.8346748,49:15.8,-0.026,9.735,-3.909,-3.5029,1.6752,3.2614,NONE,337
1770475755.8416348,49:15.8,-3.022,9.238,-3.048,-4.3183,2.1032,2.8302,NONE,338
1770475755.8491974,49:15.8,-4.453,7.46,-1.83,-4.3657,1.9252,2.0947,NONE,339
1770475755.8560472,49:15.9,-3.601,10.379,1.318,-4.3657,1.6758,1.9406,NONE,340
1770475755.8625805,49:15.9,-0.182,8.714,3.457,-4.3657,1.6092,1.9223,NONE,341
1770475755.870108,49:15.9,-2.213,11.245,2.211,-4.3657,1.9183,1.726,NONE,342
1770475755.8767233,49:15.9,-1.68,8.829,2.098,-4.3657,1.6166,0.5919,NONE,343
1770475755.8839517,49:15.9,-3.139,9.118,1.256,-4.3657,1.2656,-0.1817,NONE,344
1770475755.890929,49:15.9,-2.275,6.343,5.192,-4.3657,1.5623,-0.4848,NONE,345
1770475755.897831,49:15.9,-3.369,4.488,4.232,-3.0065,1.1704,-1.0006,NONE,346
1770475755.9047754,49:15.9,-4.158,5.984,5.481,-2.4185,1.2494,-2.1626,NONE,347
1770475755.9118264,49:15.9,-1.127,5.608,8.869,-1.9083,1.5079,-2.6867,NONE,348
1770475755.918785,49:15.9,-2.943,4.778,6.946,-1.408,1.8121,-3.4543,NONE,349
1770475755.9257987,49:15.9,-2.938,4.192,10.52,-1.5072,1.8495,-4.3657,NONE,350
1770475755.9329262,49:15.9,-2.194,3.287,12.561,-1.7912,2.2707,-4.3657,NONE,351
1770475755.9399414,49:15.9,-1.354,2.644,12.968,-1.6497,2.4191,-4.3657,NONE,352
1770475755.9470487,49:15.9,-1.881,2.529,14.04,-2.394,2.7491,-4.3657,NONE,353
1770475755.954203,49:16.0,-1.115,1.995,11.042,-1.718,3.1742,-4.3657,NONE,354
1770475755.961918,49:16.0,0.096,4.412,14.631,-2.6099,2.9451,-4.3657,NONE,355
1770475755.967898,49:16.0,3,2.292,11.858,-2.7837,2.7586,-4.3657,NONE,356
1770475755.9749572,49:16.0,1.314,-4.335,14.056,-4.3657,2.556,-4.3657,NONE,357
1770475755.9820106,49:16.0,-0.428,-3.065,9.058,-4.3657,2.8913,-4.3657,NONE,358
1770475755.9890563,49:16.0,-1.235,18.942,18.789,-4.3657,3.4027,-4.3657,NONE,359
1770475755.9957836,49:16.0,-2.689,12.281,17.411,-4.3657,2.2175,-4.3657,NONE,360
1770475756.0029685,49:16.0,7.364,-2.134,1.256,-3.4479,2.6257,-0.7946,NONE,361
1770475756.0101085,49:16.0,1.014,-7.34,3.113,-1.9243,3.4873,-0.0265,NONE,362
1770475756.0170157,49:16.0,-0.163,-4.087,4.67,-1.5536,3.7683,-0.1234,NONE,363
1770475756.0240219,49:16.0,-1.134,-2.311,5.089,-0.0205,3.423,-0.0161,NONE,364
1770475756.0310574,49:16.0,10.281,-10.917,0.828,2.0484,4.2767,-3.0489,NONE,365
1770475756.0378675,49:16.0,19.599,-4.06,-3.842,2.0673,4.3656,-4.3657,NONE,366
1770475756.0444353,49:16.0,4.041,8.417,0.933,0.904,4.3656,4.3656,NONE,367
1770475756.0520175,49:16.1,-19.6,-19.6,-7.577,1.807,4.1982,4.3656,NONE,368
1770475756.0590456,49:16.1,-18.289,-15.045,-19.6,4.3656,1.8824,4.3656,NONE,369
1770475756.0658026,49:16.1,-4.087,-17.688,-1.328,4.3656,0.4515,4.3656,NONE,370
1770475756.0731037,49:16.1,-3.079,-12.575,-13.791,4.3656,4.3656,-4.3657,NONE,371
1770475756.0798817,49:16.1,-17.32,4.328,-9.999,4.3656,3.0121,-0.3529,NONE,372
1770475756.087285,49:16.1,-10.98,7.692,-13.078,4.3656,-2.3912,2.9609,NONE,373
1770475756.0939744,49:16.1,-1.005,10.154,-19.6,4.3656,-0.8182,3.3945,NONE,374
1770475756.1008573,49:16.1,-3.455,11.159,-18.801,4.3656,-1.3245,4.2834,NONE,375
1770475756.1078644,49:16.1,-2.108,11.822,-19.6,4.3656,-4.1179,4.3656,NONE,376
1770475756.1149814,49:16.1,2.472,12.118,-19.6,3.7425,-4.3657,4.3656,NONE,377
1770475756.1218915,49:16.1,-8.762,13.236,-8.664,2.1486,-4.3657,4.3656,NONE,378
1770475756.1286743,49:16.1,3.586,3.237,-19.6,2.5115,-4.3657,4.3656,NONE,379
1770475756.1359692,49:16.1,-2.089,7.305,-11.035,3.678,-4.3657,4.3656,NONE,380
1770475756.142842,49:16.1,5.228,11.047,-11.98,3.6304,-4.3657,4.3656,NONE,381
1770475756.1498141,49:16.1,6.529,9.609,-10.171,2.9431,-4.3657,4.3656,NONE,382
1770475756.156651,49:16.2,5.713,5.321,-9.044,4.0666,-4.3657,4.3656,NONE,383
1770475756.1639025,49:16.2,8.635,7.166,-10.922,4.3656,-4.3657,4.3656,NONE,384
1770475756.1710393,49:16.2,11.676,11.221,-10.408,4.3656,-4.3657,4.3656,NONE,385
1770475756.1778743,49:16.2,19.599,19.599,10.692,3.8649,-4.3657,4.3656,NONE,386
1770475756.185345,49:16.2,19.599,19.599,19.599,3.1882,-4.3657,2.2232,NONE,387
1770475756.1919637,49:16.2,19.599,19.599,12.427,0.3477,-0.4245,-2.3005,NONE,388
1770475756.1988714,49:16.2,0.9,19.599,9.64,-1.0716,3.0792,-1.1403,NONE,389
1770475756,49:16.2,4.376,15.98,11.544,-0.8336,1.8446,4.3656,NONE,390
1770475756.2138553,49:16.2,3.412,5.149,9.769,-1.1441,2.9302,4.3656,NONE,391
1770475756.220808,49:16.2,1.536,4.962,9.788,-0.3786,4.3656,-3.6572,NONE,392
1770475756.2278316,49:16.2,0.897,9.3,9.137,-0.2871,4.3034,-2.4475,NONE,393
1770475756.234645,49:16.2,1.146,8.697,4.735,-0.3122,4.0088,2.3177,NONE,394
1770475756.241382,49:16.2,0.084,5.795,0.656,0.4159,4.1649,1.4941,NONE,395
1770475756.2488694,49:16.2,0.457,6.833,-2.878,1.3175,4.3656,-2.2302,NONE,396
1770475756.2556121,49:16.3,0.778,9.714,-5.575,1.706,4.3656,-1.9109,NONE,397
1770475756.262728,49:16.3,-0.462,10.283,-7.142,1.9007,4.3656,-0.0199,NONE,398
1770475756.269738,49:16.3,-0.945,10.173,-8.989,1.9871,4.3656,-0.3312,NONE,399
1770475756.2770913,49:16.3,-1.943,11.317,-9.822,1.7375,4.3656,-1.332,NONE,400
1770475756,49:16.3,-3.553,12.846,-9.31,1.1037,4.1447,-0.4634,NONE,401
1770475756.2908018,49:16.3,-4.979,13.013,-8.917,0.2663,3.4494,1.2252,NONE,402
1770475756.297879,49:16.3,-6.673,12.252,-7.687,-0.5249,2.7844,2.0634,NONE,403
1770475756.304875,49:16.3,-8.63,11.36,-5.587,-1.062,1.9558,2.3794,NONE,404
1770475756.3119836,49:16.3,-9.967,10.475,-3.271,-1.3246,1.0273,3.007,NONE,405
1770475756.318866,49:16.3,-11.142,8.953,-1.687,-1.1489,0.1912,3.4609,NONE,406
1770475756.3261094,49:16.3,-12.128,8.317,0.136,-0.6464,-1.0343,3.3227,NONE,407
1770475756.3335936,49:16.3,-11.056,8.384,-0.388,0.067,-2.0518,1.9207,NONE,408
1770475756.3410082,49:16.3,-9.207,10.288,-1.349,0.6694,-2.9804,0.8531,NONE,409
1770475756.3479016,49:16.3,-7.3,12.317,-2.44,0.8095,-3.7081,0.4656,NONE,410
1770475756.3548348,49:16.4,-4.84,14.413,-4.036,0.504,-4.2689,0.5356,NONE,411
1770475756,49:16.4,-2.45,16.272,-5.149,-0.2956,-4.3657,0.7376,NONE,412
1770475756.3689551,49:16.4,-0.548,17.578,-5.51,-1.2538,-4.3657,1.0841,NONE,413
1770475756.3758955,49:16.4,1.596,18.373,-4.919,-2.3454,-4.3657,1.8736,NONE,414
1770475756.3829498,49:16.4,2.974,18.002,-3.395,-3.4765,-4.3657,2.7378,NONE,415
1770475756.3901038,49:16.4,4.304,16.636,-1.223,-4.1259,-4.3657,3.0995,NONE,416
1770475756.3968036,49:16.4,5.357,14.906,1.424,-4.3657,-4.3657,2.2118,NONE,417
1770475756,49:16.4,5.857,13.635,4.189,-4.318,-4.269,1.0469,NONE,418
1770475756.4107676,49:16.4,7.216,12.743,5.656,-4.0047,-3.7398,-0.0147,NONE,419
1770475756.417761,49:16.4,8.491,12.245,6.197,-3.7683,-2.9683,-1.1798,NONE,420
1770475756.4247756,49:16.4,9.558,12.164,5.941,-3.6408,-2.4122,-2.1546,NONE,421
1770475756.4320748,49:16.4,11.245,12.623,4.292,-3.7882,-1.9692,-2.5822,NONE,422
1770475756.4388945,49:16.4,12.941,12.929,1.888,-4.2884,-1.2681,-2.349,NONE,423
1770475756.4460022,49:16.4,13.944,12.688,0.086,-4.3657,-0.5457,-1.7756,NONE,424
1770475756.453023,49:16.5,14.458,11.606,-1.517,-4.3657,0.37,-1.5875,NONE,425
1770475756.460688,49:16.5,14.662,10.238,-1.928,-4.3657,1.2369,-1.1962,NONE,426
1770475756.4681325,49:16.5,7.74,-3.263,-11.271,-4.3657,4.3656,-4.3657,NONE,427
1770475756.474989,49:16.5,-19.6,19.599,-19.6,3.693,4.3656,-4.3657,NONE,428
1770475756.4820516,49:16.5,-19.6,-16.293,9.381,4.3656,-4.3657,-4.3657,NONE,429
1770475756.4886262,49:16.5,-5.278,-6.072,7.068,4.1172,-4.3657,3.2582,NONE,430
1770475756.4958405,49:16.5,2.907,1.799,13.535,-0.2995,-3.7595,-0.4206,NONE,431
1770475756.5028462,49:16.5,-3.601,1.476,-0.069,-1.4444,-4.3657,3.7623,NONE,432
1770475756.510003,49:16.5,5.343,6.812,-14.269,-4.3657,-4.3657,4.3656,NONE,433
1770475756.5168684,49:16.5,1.584,-7.147,-17.746,-4.3657,-4.3657,4.3656,NONE,434
1770475756.5239496,49:16.5,0.531,-2.85,-10.793,-4.3657,-4.3657,4.3656,NONE,435
1770475756.5318663,49:16.5,1.12,-4.232,5.919,-4.3657,-4.3657,4.3656,NONE,436
1770475756.5390801,49:16.5,-11.968,2.617,19.599,-4.3657,-4.3657,4.3656,NONE,437
1770475756.5458937,49:16.5,4.06,-6.828,10.142,-4.3657,-4.3657,4.3656,NONE,438
1770475756.5528483,49:16.6,19.599,-12.09,4.4,-4.3657,-4.3657,4.3656,NONE,439
1770475756.560385,49:16.6,19.599,-14.944,6.919,-4.3657,-2.7985,4.3656,NONE,440
1770475756.5669124,49:16.6,19.599,-14.951,5.864,-2.8306,-4.1711,4.3656,NONE,441
1770475756.5739853,49:16.6,19.599,-16.045,1.952,-0.0628,-0.8974,2.9479,NONE,442
1770475756.581253,49:16.6,19.599,-12.133,-9.831,4.3656,-1.8692,-4.3657,NONE,443
1770475756.5878494,49:16.6,18.581,11.889,-1.113,4.3656,0.9597,-4.3657,NONE,444
1770475756.5951796,49:16.6,-19.6,19.599,-12.135,1.532,-1.6605,4.3656,NONE,445
1770475756.6021495,49:16.6,6.269,19.599,15.083,-1.3364,-0.2793,-4.3657,NONE,446
1770475756.608758,49:16.6,18.009,12.877,5.527,-1.8322,2.442,-4.3657,NONE,447
1770475756.6157887,49:16.6,17.334,17.906,7.661,-3.1818,2.1393,-2.3265,NONE,448
1770475756.622755,49:16.6,10.094,13.023,2.692,-4.3657,2.9757,1.9213,NONE,449
1770475756.6295767,49:16.6,2.266,9.551,5.448,-4.3657,2.4241,-0.9924,NONE,450
1770475756.636791,49:16.6,1.962,10.31,-0.356,-4.3657,1.7856,-0.5982,NONE,451
1770475756.643659,49:16.6,0.675,8.623,7.08,-4.3657,-0.1651,4.3656,NONE,452
1770475756.6506834,49:16.6,2.237,2.096,3.472,-4.3657,1.5813,4.3656,NONE,453
1770475756.6581898,49:16.7,-4.273,-3.438,10.592,-4.3657,-0.334,4.3656,NONE,454
1770475756.6650932,49:16.7,-2.732,-5.39,14.265,-4.3657,-0.2681,4.3656,NONE,455
1770475756.671931,49:16.7,0.603,-10.293,11.379,-4.3657,-0.2321,4.3656,NONE,456
1770475756.6789045,49:16.7,3.998,-16.076,8.86,-2.9898,-0.7265,4.3656,NONE,457
1770475756.6858778,49:16.7,6.285,-12.461,10.714,-0.4261,-1.093,1.4119,NONE,458
1770475756.6927793,49:16.7,7.453,-10.283,14.547,1.0388,-0.2208,0.4743,NONE,459
1770475756.699826,49:16.7,10.283,-10.118,12.066,2.1125,-0.1597,0.6281,NONE,460
1770475757,49:16.7,11.037,-11.563,12.219,4.0618,-0.3078,-1.6766,NONE,461
1770475756.7136142,49:16.7,17.966,-7.479,6.819,4.3656,1.1165,-1.9356,NONE,462
1770475757,49:16.7,18.167,-2.553,3.328,4.3656,2.9219,1.2303,NONE,463
1770475756.7287543,49:16.7,15.451,0.83,-12.027,3.7242,0.2281,1.3011,NONE,464
1770475756.7357788,49:16.7,19.599,-3.137,-15.956,3.3019,4.3656,4.0453,NONE,465
1770475756.7425659,49:16.7,11.748,-0.06,-3.998,3.8734,4.3656,0.5185,NONE,466
1770475756.7494705,49:16.7,9.738,1.637,-4.733,4.3656,4.3656,3.9218,NONE,467
1770475756.7565563,49:16.8,4.747,-0.45,-8.238,4.3656,4.3656,4.3656,NONE,468
1770475756.7639527,49:16.8,-19.6,19.599,19.599,1.5779,-4.14,-4.3657,NONE,469
1770475756.7707438,49:16.8,-3.519,19.599,-4.912,-2.928,-4.3657,4.3656,NONE,470
1770475756.7780888,49:16.8,-19.6,-19.6,-7.18,-4.3657,-3.7648,1.3969,NONE,471
1770475756.7848785,49:16.8,4.41,8.297,-7.697,-2.3221,-4.3657,4.3656,NONE,472
1770475756.7916899,49:16.8,6.738,0.376,-3.321,-3.0355,-4.3657,4.3656,NONE,473
1770475756.7989745,49:16.8,-0.395,8.522,19.599,-3.156,-4.3657,4.3123,NONE,474
1770475756.805719,49:16.8,6.391,-3.029,14.128,0.4534,-4.3657,1.2814,NONE,475
1770475756.8127615,49:16.8,13.3,-1.352,8.297,0.4568,-4.3657,1.0332,NONE,476
1770475756.8199208,49:16.8,11.793,-1.091,13.989,-0.9205,-4.3657,4.3656,NONE,477
1770475756.826811,49:16.8,19.599,6.558,14.652,0.2177,-4.3657,-1.6523,NONE,478
1770475756.833661,49:16.8,19.599,4.986,11.487,0.459,-3.4063,-4.0332,NONE,479
1770475756.8408022,49:16.8,19.599,8.324,11.862,0.7817,-1.8866,-4.3657,NONE,480
1770475756.847692,49:16.8,17.277,7.278,12.556,1.1916,-1.6658,-4.3657,NONE,481
1770475756.8550773,49:16.9,15.167,9.723,11.996,1.3151,-0.5188,-4.3657,NONE,482
1770475756.8617086,49:16.9,14.717,8.75,8.678,1.1654,0.151,-4.3657,NONE,483
1770475756.8691502,49:16.9,15.322,10.223,5.111,1.0301,1.1624,-4.3657,NONE,484
1770475756.8757882,49:16.9,17.932,13.858,7.64,0.398,1.9642,-4.3657,NONE,485
1770475756.8830607,49:16.9,19.599,16.226,8.687,-1.4874,4.0789,-3.0575,NONE,486
1770475756.890062,49:16.9,18.932,9.867,12.65,-2.6333,4.3656,-4.3657,NONE,487
1770475756.8968313,49:16.9,15.284,7.513,11.573,-3.3489,4.3656,-4.3657,NONE,488
1770475756.9036467,49:16.9,13.047,9.838,3.984,0.4259,3.7097,0.6161,NONE,489
1770475756.9108672,49:16.9,3.381,3.091,10.439,-0.9369,4.3656,-4.3657,NONE,490
1770475756.917925,49:16.9,3.519,4.333,9.673,-0.4433,4.3656,-4.3657,NONE,491
1770475757,49:16.9,3.414,4.855,7.678,-0.468,4.3656,-3.4975,NONE,492
1770475756.9325843,49:16.9,-1.493,3.467,9.759,-0.1069,4.3656,-3.6116,NONE,493
1770475756.9390907,49:16.9,2.445,4.998,7.539,-0.4968,4.0588,-2.57,NONE,494
1770475756.9461749,49:16.9,2.677,2.443,13.748,-0.6708,3.2394,1.0894,NONE,495
1770475756.9532645,49:17.0,4.878,-1.192,16.698,-0.0124,3.5382,-0.5201,NONE,496
1770475756.9600837,49:17.0,13.654,9.283,2.594,0.9469,4.2054,-1.131,NONE,497
1770475756.967087,49:17.0,5.709,18.636,10.575,1.1819,4.3656,-4.3657,NONE,498
1770475756.9739392,49:17.0,9.286,19.599,15.528,-1.6583,4.3656,-4.3657,NONE,499
1770475756.9809723,49:17.0,19.599,19.599,5.881,-4.3657,4.3656,2.2657,NONE,500
1770475756.9877772,49:17.0,19.599,12.422,7.537,-4.3657,4.3656,-0.8865,NONE,501
1770475756.9953318,49:17.0,19.599,5.075,-0.522,-4.3657,4.3656,-4.3657,NONE,502
1770475757.0028677,49:17.0,19.599,-0.971,-5.233,-4.3657,4.3656,2.9116,NONE,503
1770475757.0099506,49:17.0,9.666,-19.6,-13.348,-4.3657,4.3656,-3.9535,NONE,504
1770475757.0171106,49:17.0,-19.6,-19.6,-7.965,-0.8623,4.3656,-4.3657,NONE,505
1770475757.0239248,49:17.0,-19.6,-19.6,-1.342,4.3656,4.3656,-4.3657,NONE,506
1770475757,49:17.0,-19.6,-14.535,-1.467,4.3656,4.3523,-4.3657,NONE,507
1770475757.0377991,49:17.0,-9.786,12.951,10.049,4.3656,1.5553,-4.3657,NONE,508
1770475757.044823,49:17.0,16.188,9.826,19.599,4.3656,4.0353,-4.3657,NONE,509
1770475757.051814,49:17.1,19.599,3.914,-10.673,2.9014,4.3656,-4.3657,NONE,510
1770475757.0588193,49:17.1,17.38,0.026,-12.578,1.4341,4.3656,-4.3657,NONE,511
1770475757.0660489,49:17.1,-0.689,-9.633,-15.14,1.1098,4.3656,-4.3657,NONE,512
1770475757.0731804,49:17.1,-18.751,-12.396,-17.727,2.8009,4.3656,-4.3657,NONE,513
1770475757.0798044,49:17.1,-19.6,-5.175,-3.608,2.5883,4.3656,-4.3657,NONE,514
1770475757.0870802,49:17.1,-19.6,-2.591,-10.774,2.574,3.973,-4.3657,NONE,515
1770475757.0941186,49:17.1,-15.248,1.747,-18.71,1.7229,2.318,-4.3657,NONE,516
1770475757,49:17.1,-14.193,6.314,-19.6,0.0384,2.4367,-4.3657,NONE,517
1770475757.1080647,49:17.1,-19.6,4.74,-19.6,-1.9893,2.113,-3.4729,NONE,518
1770475757.115056,49:17.1,-19.6,-2.567,-19.6,-3.249,-0.2009,0.3254,NONE,519
1770475757.1223974,49:17.1,-19.6,-10.401,-19.6,-2.6052,-4.0506,1.0174,NONE,520
1770475757.1292195,49:17.1,-19.6,-5.565,-18.267,-1.9943,-4.3657,0.6343,NONE,521
1770475757.136124,49:17.1,-19.6,2.783,-14.497,-2.297,-4.3657,1.0525,NONE,522
1770475757.1428487,49:17.1,-9.252,4.52,-9.01,-3.3838,-4.3657,2.3443,NONE,523
1770475757.1497712,49:17.1,-4.082,2.493,-3.656,-4.3052,-4.3657,3.0036,NONE,524
1770475757.1569006,49:17.2,-9.018,-1.909,1.866,-4.3657,-4.3657,4.3653,NONE,525
1770475757.163961,49:17.2,-18.54,-5.498,3.945,-3.9386,-4.3657,4.225,NONE,526
1770475757.1711514,49:17.2,-19.6,-6.553,4.46,-3.0261,-4.3657,4.3656,NONE,527
1770475757.178152,49:17.2,-19.6,-6.297,4.888,-2.0342,-4.3657,4.3656,NONE,528
1770475757.1852539,49:17.2,-19.6,-1.526,6.01,-1.5451,-4.3657,4.3656,NONE,529
1770475757.1919334,49:17.2,-14.001,2.003,6.025,-1.5881,-4.3657,4.3656,NONE,530
1770475757.1991062,49:17.2,-5.295,2.9,8.271,-2.0006,-4.3657,4.3656,NONE,531
1770475757.2054965,49:17.2,7.202,1.83,7.929,-2.1073,-4.3657,2.2956,NONE,532
1770475757.2127378,49:17.2,3.118,2.55,13.212,-2.2677,-4.3657,1.5334,NONE,533
1770475757.2196982,49:17.2,2.254,1.366,14.377,-2.3892,-4.3657,0.5176,NONE,534
1770475757.2268507,49:17.2,-1.9,7.319,19.404,-2.9888,-4.3657,-1.0148,NONE,535
1770475757.2338643,49:17.2,1.845,11.271,18.387,-3.9722,-4.3657,-0.5107,NONE,536
1770475757.2408683,49:17.2,19.599,6.505,16.662,-4.3111,-4.3657,1.3692,NONE,537
1770475757.2478294,49:17.2,19.599,-1.091,15.736,-4.0737,-4.3657,1.2335,NONE,538
1770475757.2551155,49:17.3,19.599,-16.839,3.85,-2.0819,-2.4359,-0.412,NONE,539
1770475757.2620757,49:17.3,19.599,-11.006,9.659,-0.8128,4.3656,-2.4173,NONE,540
1770475757.2687852,49:17.3,5.343,1.744,14.853,-0.7851,4.3656,-1.1037,NONE,541
1770475757.275986,49:17.3,-12.996,-0.232,16.741,-0.758,2.0987,-0.1466,NONE,542
1770475757.2830381,49:17.3,-3.388,-2.352,15.04,-0.8035,-1.3979,-3.3378,NONE,543
1770475757.2900186,49:17.3,19.126,-5.867,11.999,-0.2866,-1.2124,-1.0905,NONE,544
1770475757.2969224,49:17.3,19.599,-12.583,9.685,0.7397,2.5526,-2.136,NONE,545
1770475757.3037004,49:17.3,19.599,-8.343,9.018,1.3803,4.3656,-3.86,NONE,546
1770475757.310875,49:17.3,19.599,-2.091,9.003,1.155,4.3656,-3.6481,NONE,547
1770475757.318296,49:17.3,14.068,-4.182,7.62,1.0158,4.3656,-3.1521,NONE,548
1770475757.3260653,49:17.3,11.858,-6.821,3.395,1.2465,4.3656,-3.6411,NONE,549
1770475757.332867,49:17.3,6.606,-5.101,-1.392,1.1021,4.3656,-3.8809,NONE,550
1770475757.3398762,49:17.3,-1.62,-3.797,-2.366,0.9931,4.3656,-3.2788,NONE,551
1770475757.3467982,49:17.3,-7.247,-2.505,-3.936,0.8865,4.3656,-3.5622,NONE,552
1770475757.3536024,49:17.4,-7.757,0.9,-4.867,0.4425,4.3656,-3.9696,NONE,553
1770475757.361174,49:17.4,-8.508,5.812,-14.083,-0.7301,4.3656,-3.858,NONE,554
1770475757,49:17.4,-18.607,7.618,-15.963,-2.2035,4.3656,-2.7166,NONE,555
1770475757.3750055,49:17.4,-19.6,3.094,-17.655,-3.2933,4.3656,-0.7388,NONE,556
1770475757.3820155,49:17.4,-19.6,-3.809,-12.279,-3.7738,2.2215,0.4646,NONE,557
1770475757.389386,49:17.4,-19.6,-10.262,-8.79,-2.8713,-2.0919,0.6615,NONE,558
1770475757.3962393,49:17.4,-19.6,-10.654,-4.713,-1.4321,-4.3657,0.6566,NONE,559
1770475757.4028919,49:17.4,-15.114,-13.319,-0.419,0.2972,-4.3657,3.1459,NONE,560
1770475757.409827,49:17.4,-7.965,-12.635,2.283,2.223,-2.9701,2.8797,NONE,561
1770475757,49:17.4,-11.623,-2.122,7.118,3.0567,-1.2572,2.3622,NONE,562
1770475757.4238012,49:17.4,-19.215,6.295,9.759,2.6706,-1.6248,1.9874,NONE,563
1770475757.4309077,49:17.4,-19.241,12.157,10.314,1.2994,-2.7747,2.3168,NONE,564
1770475757.437876,49:17.4,-16.176,10.003,9.97,-0.0344,-3.2766,3.2314,NONE,565
1770475757.4450037,49:17.4,-14.647,6.039,11.829,-0.7801,-3.2267,2.9717,NONE,566
1770475757.4520907,49:17.5,-15.978,5.316,14.018,-1.2249,-2.918,2.0967,NONE,567
1770475757.459232,49:17.5,-18.497,3.563,13.843,-1.3831,-3.5809,2.7162,NONE,568
1770475757.4658904,49:17.5,-17.126,0.227,13.623,-1.0595,-4.0569,1.8237,NONE,569
1770475757.4731364,49:17.5,-10.855,-1.67,14.884,-0.1944,-4.3657,0.4822,NONE,570
1770475757.479893,49:17.5,-1.519,2.373,12.159,0.224,-3.4772,-0.0433,NONE,571
1770475757.486674,49:17.5,0.629,2.854,13.044,0.2602,-2.2222,-0.9435,NONE,572
1770475757.4938245,49:17.5,0.292,4.541,14.339,0.1334,-1.3715,-2.9162,NONE,573
1770475757.5007832,49:17.5,0.608,2.986,19.599,0.0829,-1.6927,-2.3571,NONE,574
1770475757.5077417,49:17.5,2.376,2.629,17.552,0.0737,-1.3586,-3.3629,NONE,575
1770475757.5149763,49:17.5,1.749,2.44,18.882,0.1924,-1.1215,-2.0419,NONE,576
1770475757.522586,49:17.5,-0.148,-1.201,16.99,0.461,-0.8545,-0.9785,NONE,577
1770475757.5298963,49:17.5,-1.18,-2.067,14.58,1.0186,-0.4554,-1.7371,NONE,578
1770475757.5369503,49:17.5,-2.113,1.421,14.614,1.101,-0.1336,-1.9009,NONE,579
1770475757.5441363,49:17.5,-4.173,2.9,12.334,0.7651,-0.2658,-1.1827,NONE,580
1770475757.551002,49:17.6,-4.015,-1.663,10.831,0.721,-0.0821,-0.9896,NONE,581
1770475757.5578473,49:17.6,-7.537,-1.986,11.149,1.0689,-0.139,-1.0202,NONE,582
1770475757.565049,49:17.6,-10.446,-0.632,10.436,1.2696,-1.2284,-1.0441,NONE,583
1770475757.571792,49:17.6,-7.73,0.861,10.379,1.3231,-2.3529,-1.6979,NONE,584
1770475757.5794048,49:17.6,-3.034,4.07,10.824,0.9264,-2.8742,-2.3072,NONE,585
1770475757.5860806,49:17.6,2.211,8.886,11.317,-0.1904,-2.4532,-1.9692,NONE,586
1770475757.5929778,49:17.6,2.469,7.666,11.724,-1.4869,-1.3352,-1.3376,NONE,587
1770475757.6000323,49:17.6,-0.407,4.646,10.637,-2.5566,-0.8135,-0.7458,NONE,588
1770475757.607196,49:17.6,-3.019,3.933,9.204,-3.1822,-0.791,-1.2317,NONE,589
1770475757.6139035,49:17.6,-3.804,3.252,7.907,-3.9127,-1.3083,0.0248,NONE,590
1770475757.620798,49:17.6,-4.175,-2.007,3.778,-4.0797,-1.2284,1.7483,NONE,591
1770475757.6278422,49:17.6,-9.96,-4.855,2.352,-3.712,-1.1911,0.99,NONE,592
1770475757.635069,49:17.6,-14.611,-4.359,5.623,-3.4724,-2.8972,0.1541,NONE,593
1770475757.6419907,49:17.6,-12.315,0.871,4.393,-3.256,-4.3657,-0.4875,NONE,594
1770475757.649381,49:17.6,-4.974,4.369,5.381,-3.654,-4.3657,-0.0494,NONE,595
1770475757.655711,49:17.7,3.302,0.199,4.713,-3.765,-4.3657,1.4044,NONE,596
1770475757.6629736,49:17.7,7.879,-1.364,3.804,-3.3574,-3.7952,-0.82,NONE,597
1770475757.6698716,49:17.7,7.099,4.845,6.07,-3.8479,-2.0622,-1.0961,NONE,598
1770475757.6771946,49:17.7,3.433,7.644,6.202,-4.3657,-1.0588,-0.9402,NONE,599
1770475757.6837072,49:17.7,0.522,3.613,5.06,-4.3657,-0.6193,0.206,NONE,600
1770475757.6909516,49:17.7,-4.57,2.673,5.675,-4.3657,-0.4139,-1.3568,NONE,601
1770475757.6981292,49:17.7,-8.147,2.991,4.8,-4.3657,-0.9599,-0.2657,NONE,602
1770475757.704849,49:17.7,-10.96,-8.642,1.759,-4.3657,-1.7443,3.8119,NONE,603
1770475757.712385,49:17.7,-17.535,-19.32,0.979,-4.3657,-2.4936,0.9828,NONE,604
1770475757.719929,49:17.7,-15.801,-17.662,1.469,-4.3657,-4.3657,-1.0019,NONE,605
1770475757.726193,49:17.7,-4.919,-1.794,-0.062,-4.3657,-4.3657,-1.9677,NONE,606
1770475758,49:17.7,10.29,10.408,-0.28,-4.3657,-4.3657,-0.6502,NONE,607
1770475757.7404268,49:17.7,19.141,9.42,-1.373,-4.3657,-2.8309,1.9295,NONE,608
1770475757.746814,49:17.7,13.252,0.555,-2.527,-4.3657,0.4791,2.5599,NONE,609
1770475757.7538025,49:17.8,0.916,-7.307,-3.108,-4.3657,1.2965,2.6625,NONE,610
1770475757.7609518,49:17.8,-7.541,-13.652,0.376,-4.3657,1.034,1.4859,NONE,611
1770475757.768564,49:17.8,-12.063,-16.454,5.498,-4.3657,-0.8294,0.4644,NONE,612
1770475757.7764146,49:17.8,-6.738,-19.6,6.484,-4.3657,-2.5989,-0.1567,NONE,613
1770475757.7830014,49:17.8,0.847,-19.406,7.651,-4.3657,-2.9187,-0.4588,NONE,614
1770475757.7901504,49:17.8,4.878,-14.198,6.826,-4.2073,-2.3106,-0.8366,NONE,615
1770475757.7972085,49:17.8,5.06,-10.578,6.809,-4.2487,-1.7885,-0.303,NONE,616
1770475757.8038137,49:17.8,5.23,-12.63,5.993,-4.154,-1.3837,0.5172,NONE,617
1770475757.8110702,49:17.8,5.029,-14.736,6.371,-3.4968,-0.799,0.2415,NONE,618
1770475757.8178165,49:17.8,2.823,-12.702,6.17,-2.7685,-0.3989,0.1126,NONE,619
1770475757.8250864,49:17.8,0.79,-10.281,5.958,-2.4636,-0.3268,-0.055,NONE,620
1770475757.832081,49:17.8,-0.041,-10.853,5.103,-2.2509,-0.5431,-0.1699,NONE,621
1770475757.839044,49:17.8,0.44,-12.25,4.957,-1.9921,-0.5589,-0.4895,NONE,622
1770475757.8462236,49:17.8,0.651,-13.298,5.658,-1.7511,-0.5096,-0.613,NONE,623
1770475757.8534606,49:17.9,0.766,-14.37,6.529,-1.4938,-0.4999,-0.6646,NONE,624
1770475757.8605766,49:17.9,1.373,-16.045,7.075,-1.103,-0.5121,-0.5536,NONE,625
1770475757.8677146,49:17.9,2.184,-16.81,6.941,-0.6109,-0.3921,-0.5882,NONE,626
1770475757.874332,49:17.9,2.649,-15.985,6.204,-0.1711,-0.1609,-0.5056,NONE,627
1770475757.8808653,49:17.9,2.333,-14.918,6.297,0.1599,0.0821,-0.453,NONE,628
1770475757.8877523,49:17.9,1.723,-13.824,5.469,0.4498,0.1709,-0.3695,NONE,629
1770475757.8946724,49:17.9,1.526,-12.391,4.57,0.6559,0.3208,-0.4722,NONE,630
1770475757.9025092,49:17.9,0.455,-8.649,3.163,0.5736,0.4707,-0.6506,NONE,631
1770475757.9098673,49:17.9,-0.952,-5.481,2.294,0.0506,0.3188,-0.2365,NONE,632
1770475757.9170482,49:17.9,-1.479,-6.548,2.027,-0.3027,0.1997,-0.095,NONE,633
1770475757.9237466,49:17.9,-1.536,-7.532,2.46,-0.4125,0.043,0.0898,NONE,634
1770475757.931326,49:17.9,-1,-8.008,2.962,-0.492,-0.0396,-0.0317,NONE,635
1770475757.937631,49:17.9,0.22,-9.032,3.78,-0.5276,-0.1336,0.3288,NONE,636
1770475757.9447844,49:17.9,1.048,-10.166,4.429,-0.5076,0.0139,0.2521,NONE,637
1770475757.9517705,49:18.0,0.952,-11.149,5.158,-0.4398,0.1803,0.1982,NONE,638
1770475757.9586325,49:18.0,0.656,-12.305,5.625,-0.2607,0.2771,0.1941,NONE,639
1770475757.9659364,49:18.0,-0.007,-12.774,5.766,0.0224,0.3038,0.0679,NONE,640
1770475757.9732554,49:18.0,-0.179,-12.161,5.347,0.3044,0.2358,-0.0468,NONE,641
1770475757.979731,49:18.0,0.112,-11.343,5.256,0.5056,0.1957,-0.077,NONE,642
1770475757.9869578,49:18.0,0.385,-10.824,4.733,0.6722,0.308,-0.1533,NONE,643
1770475757.9939814,49:18.0,-0.06,-9.47,4.766,0.6969,0.3496,-0.0846,NONE,644
1770475758.0006971,49:18.0,-0.148,-9.034,4.235,0.6427,0.3413,-0.0682,NONE,645
1770475758.007624,49:18.0,0.112,-9.427,4.417,0.6101,0.2751,0.1276,NONE,646
1770475758.014522,49:18.0,0.849,-10.269,4.242,0.669,0.3488,0.1627,NONE,647
1770475758.021568,49:18.0,1.105,-10.683,4.273,0.737,0.5488,0.2685,NONE,648
1770475758.0292275,49:18.0,0.476,-11.195,5.548,0.7452,0.579,0.4334,NONE,649
1770475758.0358772,49:18.0,1.993,-14.324,6.728,0.9419,0.4979,1.0476,NONE,650
1770475758.042848,49:18.0,3.515,-17.014,7.714,1.4189,0.8801,0.8227,NONE,651
1770475758.0496805,49:18.0,4.137,-17.26,7.147,2.047,0.7999,1.106,NONE,652
1770475758.0570066,49:18.1,6.883,-16.473,7.541,2.5716,1.2517,0.9442,NONE,653
1770475758.063937,49:18.1,7.644,-15.179,9.082,2.8526,1.9766,0.6659,NONE,654
1770475758.0707831,49:18.1,7.07,-14.786,6.338,3.2403,2.5406,1.0625,NONE,655
1770475758.077816,49:18.1,6.029,-14.14,5.211,3.6138,2.8801,0.9385,NONE,656
1770475758.0847702,49:18.1,5.101,-12.367,4.905,3.889,3.2051,0.2561,NONE,657
1770475758.0914125,49:18.1,4.867,-9.711,4.895,3.8381,3.3906,0.3884,NONE,658
1770475758.0985682,49:18.1,5.242,-9.577,4.802,3.6838,3.6314,0.4143,NONE,659
1770475758.1059444,49:18.1,5.261,-9.501,4.931,3.4863,4.0177,0.0608,NONE,660
1770475758.112853,49:18.1,5.958,-11.248,3.795,3.4578,4.3656,0.6995,NONE,661
1770475758.1198332,49:18.1,4.23,-12.193,2.773,3.6202,4.3656,0.3186,NONE,662
1770475758.1269348,49:18.1,0.84,-11.348,2.888,3.7032,4.3656,0.7213,NONE,663
1770475758.1336725,49:18.1,-0.684,-12.362,2.948,3.8004,4.3656,0.6379,NONE,664
1770475758.1407423,49:18.1,-0.526,-12.245,2.495,4.0035,4.3656,0.7935,NONE,665
1770475758.1477432,49:18.1,0.682,-13.31,2.531,4.3656,4.3656,1.1971,NONE,666
1770475758.154739,49:18.2,0.658,-12.13,1.802,4.3656,4.3656,0.3535,NONE,667
1770475758.1617744,49:18.2,-0.01,-9.341,2.127,4.3656,4.3656,0.5505,NONE,668
1770475758.1689677,49:18.2,-2.723,-9.819,2.153,4.3656,4.3656,1.2812,NONE,669
1770475758.1769693,49:18.2,-5.879,-8.924,1.668,4.3656,4.3656,1.1338,NONE,670
1770475758.1837413,49:18.2,-3.618,-6.161,2.027,4.3656,4.0943,0.5808,NONE,671
1770475758.1908157,49:18.2,-0.22,-1.352,1.211,4.3656,4.2257,0.2735,NONE,672
1770475758.1974359,49:18.2,1.897,1.4,0.754,4.3211,4.3656,0.684,NONE,673
1770475758.2044928,49:18.2,0.663,0.407,2.058,3.5831,4.3656,1.6114,NONE,674
1770475758.2118988,49:18.2,-0.785,-4.814,-0.017,3.3674,4.3656,2.1466,NONE,675
1770475758.2185447,49:18.2,-7.386,-9.63,2.306,3.7185,4.3656,2.2952,NONE,676
1770475758.2258353,49:18.2,-11.068,-12.315,2.029,4.3656,4.3656,1.5062,NONE,677
1770475758.2327251,49:18.2,-5.733,-10.145,1.433,4.3656,4.3656,1.3905,NONE,678
1770475758.2399411,49:18.2,-3.787,-8.747,2.086,4.3656,4.3656,0.9864,NONE,679
1770475758.2469063,49:18.2,-1.983,-7.431,2.189,4.3656,4.3656,1.5171,NONE,680
1770475758.2535934,49:18.3,-2.876,-4.57,1.78,4.3656,4.3656,2.1369,NONE,681
1770475758,49:18.3,-6.709,-1.61,-0.632,4.3656,4.3656,1.7163,NONE,682
1770475758.267513,49:18.3,-8.97,-2.263,0.127,4.3656,4.3656,2.0705,NONE,683
1770475758.2747104,49:18.3,-7.838,-3.424,-2.213,4.3656,4.3656,1.3674,NONE,684
1770475758.2818418,49:18.3,-8.087,-0.036,-1.163,4.3656,4.3656,0.134,NONE,685
1770475758.288668,49:18.3,-7.601,3.161,-1.735,4.3656,4.3656,0.0923,NONE,686
1770475758.2965658,49:18.3,-3.799,1.646,-3.12,4.3656,4.3656,0.3832,NONE,687
1770475758.303957,49:18.3,-4.742,1.737,-4.706,4.3656,4.3656,0.0937,NONE,688
1770475758.3105803,49:18.3,-8.518,2.859,-3.242,4.0197,4.3656,0.0133,NONE,689
1770475758.3175836,49:18.3,-8.948,0.933,-4.515,3.7533,4.3656,0.8042,NONE,690
1770475758.3251026,49:18.3,-9.386,0.041,-2.383,3.8642,4.3656,0.0282,NONE,691
1770475758.3327687,49:18.3,-7.967,0.579,-0.345,3.8415,4.3656,0.2306,NONE,692
1770475758.3389509,49:18.3,-6.324,1.445,-0.708,3.6315,4.3656,-0.029,NONE,693
1770475758.3459866,49:18.3,-8.982,2.646,1.254,3.1381,4.3656,-0.0937,NONE,694
1770475758.353085,49:18.4,-10.365,2.354,0.428,2.8241,4.3399,0.064,NONE,695
1770475758.3607216,49:18.4,-9.494,1.34,-1.177,2.6211,3.6314,-0.2831,NONE,696
1770475758.3670645,49:18.4,-6.589,0.95,-0.644,2.5851,3.8088,-0.6336,NONE,697
1770475758.3737783,49:18.4,-5.699,2.462,-0.859,2.2689,4.3495,-0.6612,NONE,698
1770475758.3806188,49:18.4,-7.489,2.347,-0.859,1.8259,4.3656,-0.4207,NONE,699
1770475758.3880668,49:18.4,-13.664,1.632,-1.318,1.5653,4.3656,-0.4227,NONE,700
1770475758.3949084,49:18.4,-17.461,0.749,-1.034,1.4494,3.6026,-0.4843,NONE,701
1770475758.4020073,49:18.4,-16.384,1.273,-1.534,1.3249,2.4701,-1.2409,NONE,702
1770475758.4087505,49:18.4,-13.193,1.727,-1.845,1.0902,2.038,-1.133,NONE,703
1770475758.4157348,49:18.4,-11.803,1.936,-1.754,0.7041,2.2723,-0.9595,NONE,704
1770475758.4227011,49:18.4,-13.808,1.402,-0.488,0.2998,2.5045,-0.601,NONE,705
1770475758.429971,49:18.4,-16.217,-0.189,3.378,0.0839,2.396,-0.4129,NONE,706
1770475758.4369493,49:18.4,-16.624,-1.012,0.294,0.0384,1.6004,-0.4667,NONE,707
1770475758.4437406,49:18.4,-15.963,-0.464,-1.294,0.0682,1.2862,-0.6595,NONE,708
1770475758.4508119,49:18.5,-15.195,0.39,-1.309,-0.0232,1.0611,-0.4824,NONE,709
1770475758.457978,49:18.5,-15.6,-0.041,-0.644,-0.1555,0.8611,0.0941,NONE,710
1770475758.4649477,49:18.5,-16.571,-1.818,0.388,-0.0902,0.6147,0.2176,NONE,711
1770475758.4717135,49:18.5,-17.069,-2.579,0.873,0.1495,0.2177,0.2153,NONE,712
1770475758.4787273,49:18.5,-15.961,-1.986,1.175,0.381,-0.1933,0.0165,NONE,713
1770475758.4858737,49:18.5,-13.621,-1.017,0.919,0.457,-0.2964,-0.0131,NONE,714
1770475758.4932573,49:18.5,-12.279,-0.261,0.567,0.4303,-0.1408,-0.0663,NONE,715
1770475758.5009098,49:18.5,-12.788,0.512,0.146,0.4293,-0.089,-0.2848,NONE,716
1770475758.5076828,49:18.5,-12.551,1.383,0.053,0.2407,-0.2846,0.0045,NONE,717
1770475758.5149255,49:18.5,-12.642,2.082,-0.562,-0.1159,-0.2729,-0.3333,NONE,718
1770475758.5219536,49:18.5,-13.504,1.718,-0.928,-0.48,-0.4101,0.3182,NONE,719
1770475758.5288918,49:18.5,-15.76,0.208,-2.364,-0.8131,-0.6839,0.558,NONE,720
1770475758.5359166,49:18.5,-18.176,0.22,-2.067,-0.8084,-1.5819,0.756,NONE,721
1770475758.542941,49:18.5,-16.241,0.883,-1.526,-0.9846,-2.5594,1.0373,NONE,722
1770475758.5499926,49:18.5,-12.444,0.756,-2.046,-1.2248,-2.8755,1.1346,NONE,723
1770475758.557045,49:18.6,-10.781,3.742,-1.366,-1.6637,-2.6664,1.0194,NONE,724
1770475759,49:18.6,-10.941,7.013,-3.01,-2.4677,-2.5696,1.3747,NONE,725
1770475758.5709362,49:18.6,-13.664,8.391,-2.417,-3.7978,-2.7518,1.6924,NONE,726
1770475758.5778835,49:18.6,-15.413,6.742,-4.259,-4.3657,-3.2672,1.1872,NONE,727
1770475758.5849352,49:18.6,-17.117,5.374,-5.929,-4.3657,-3.88,1.0359,NONE,728
1770475758.591887,49:18.6,-17.624,4.941,-7.891,-4.3657,-4.3657,0.6368,NONE,729
1770475758.5990558,49:18.6,-18.854,6.883,-9.247,-4.3657,-4.3657,-0.3044,NONE,730
1770475758.6060076,49:18.6,-14.506,5.058,-9.491,-4.3657,-4.3657,0.4872,NONE,731
1770475758.6127944,49:18.6,-9.551,1.814,-9.841,-4.3657,-4.3657,0.0938,NONE,732
1770475758.620058,49:18.6,-7.991,2.041,-8.585,-4.3657,-4.3657,-1.6292,NONE,733
1770475758.6269922,49:18.6,-9.984,0.182,-7.096,-4.3657,-4.3657,-1.0517,NONE,734
1770475758.6340606,49:18.6,-14.693,0.869,-6.922,-4.3657,-4.3657,-1.3773,NONE,735
1770475758.6411498,49:18.6,-16.461,2.414,-6.711,-4.3657,-4.3657,-1.958,NONE,736
1770475758.6480958,49:18.6,-14.846,3.874,-7.429,-4.3657,-4.3657,-2.0085,NONE,737
1770475758.6547592,49:18.7,-9.965,4.28,-9.446,-4.3657,-4.3657,-2.3142,NONE,738
1770475758.6619964,49:18.7,-5.895,4.477,-10.982,-4.3657,-4.3657,-2.4797,NONE,739
1770475758.6692808,49:18.7,-2.943,3.036,-12.257,-4.3657,-4.3657,-2.2131,NONE,740
1770475758.675979,49:18.7,-0.412,-1.048,-13.011,-4.3657,-4.3657,-2.0843,NONE,741
1770475758.682989,49:18.7,0.254,-6.745,-12.59,-4.3657,-4.3657,-2.9038,NONE,742
1770475758.6899881,49:18.7,1.297,-9.891,-9.077,-4.3657,-4.3657,-3.5665,NONE,743
1770475758.6969657,49:18.7,3.019,-8.132,-7.424,-4.3657,-4.3657,-3.96,NONE,744
1770475758.7042136,49:18.7,5.158,-6.977,-6.508,-4.3657,-4.3657,-3.5979,NONE,745
1770475758.7109022,49:18.7,4.063,-7.642,-4.343,-4.3657,-4.3657,-3.3001,NONE,746
1770475758.7178955,49:18.7,4.493,-8.058,-3.627,-4.3657,-4.3657,-3.3096,NONE,747
1770475758.7249463,49:18.7,5.541,-9.056,-1.536,-4.3657,-4.3657,-3.1309,NONE,748
1770475758.7319317,49:18.7,7.434,-6.869,-0.182,-4.3657,-4.3657,-3.4127,NONE,749
1770475758.738744,49:18.7,8.862,-4.254,0.646,-4.3657,-4.3657,-3.2857,NONE,750
1770475758.746654,49:18.7,9.965,-5.19,0.438,-4.3657,-4.3657,-2.5551,NONE,751
1770475758.7539513,49:18.8,8.491,-8.214,-2.058,-4.3657,-3.4901,-1.6912,NONE,752
1770475758.760923,49:18.8,4.17,-11.47,-1.979,-4.3657,-2.6697,-1.6309,NONE,753
1770475758.7681623,49:18.8,-0.237,-11.793,-1.876,-4.3657,-2.5135,-2.1277,NONE,754
1770475758.7751698,49:18.8,-4.06,-14.221,-1.548,-4.3657,-2.7271,-2.4115,NONE,755
1770475758.7818844,49:18.8,-5.838,-18.105,0.132,-4.3657,-3.5886,-2.933,NONE,756
1770475758.7888935,49:18.8,-5.204,-19.6,1.098,-4.3657,-4.3615,-3.3722,NONE,757
1770475758.795917,49:18.8,-1.876,-19.6,1.392,-3.3594,-4.3657,-3.9447,NONE,758
1770475758.802857,49:18.8,3.017,-17.801,2.034,-2.5652,-4.3657,-3.6569,NONE,759
1770475758.8097918,49:18.8,6.769,-15.36,2.314,-2.1697,-4.1308,-3.4176,NONE,760
1770475758.8170466,49:18.8,7.422,-13.174,1.725,-2.1603,-3.0562,-2.9568,NONE,761
1770475758.824053,49:18.8,6.206,-12.796,0.502,-2.2227,-2.1929,-1.8787,NONE,762
1770475758.8310075,49:18.8,3.575,-14.427,-0.292,-1.9934,-1.7563,-1.1556,NONE,763
1770475758.8380332,49:18.8,2.065,-14.844,-0.737,-1.558,-1.5977,-1.0098,NONE,764
1770475758.845024,49:18.8,1.369,-14.415,-0.691,-1.0576,-1.7207,-0.6105,NONE,765
1770475758.8519933,49:18.9,2.452,-13.501,-0.366,-0.7065,-1.9257,-0.6804,NONE,766
1770475758.8590436,49:18.9,4.807,-14.865,-0.457,-0.3476,-1.9581,-0.6098,NONE,767
1770475758.8658912,49:18.9,7.931,-15.554,0.325,0.2206,-1.7377,-0.7516,NONE,768
1770475758.872951,49:18.9,9.137,-16.021,1.256,0.7008,-1.0769,-1.2225,NONE,769
1770475758.8805037,49:18.9,10.168,-16.542,4.003,1.2255,-0.9082,-0.9229,NONE,770
1770475758.8880308,49:18.9,12.834,-18.011,5.357,1.7877,-0.6494,-0.8318,NONE,771
1770475758.8948503,49:18.9,16.427,-19.6,3.601,2.4177,0.0532,-1.6158,NONE,772
1770475758.9017866,49:18.9,17.923,-19.16,4.098,3.0836,1.4248,-1.603,NONE,773
1770475758.9090116,49:18.9,15.193,-17.399,5.398,3.5765,2.4513,-1.1962,NONE,774
1770475758.915676,49:18.9,11.767,-16.387,4.311,3.8886,2.7804,-0.6763,NONE,775
1770475758.9227238,49:18.9,10.121,-15.509,4.146,4.0008,2.729,-0.4501,NONE,776
1770475758.9297235,49:18.9,10.472,-14.281,4.027,3.9217,2.7268,-0.5552,NONE,777
1770475758.9367137,49:18.9,13.556,-13.729,2.84,3.8108,3.1353,-0.0673,NONE,778
1770475758.943734,49:18.9,17.109,-14.262,0.799,3.7667,4.1452,0.348,NONE,779
1770475758.9512556,49:19.0,16.602,-16.423,0.048,4.0332,4.3656,0.9409,NONE,780
1770475758.9577796,49:19.0,12.815,-16.932,-1.364,4.3656,4.3656,1.3312,NONE,781
1770475758.9647434,49:19.0,6.202,-11.054,-1.663,4.3656,4.3656,0.5396,NONE,782
1770475758.9715817,49:19.0,3.18,-9.664,-1.534,4.3656,4.3656,2.2644,NONE,783
1770475758.9787717,49:19.0,4.331,-12.209,-1.826,4.3656,4.3656,2.416,NONE,784
1770475758.9856598,49:19.0,4.278,-13.212,-1.983,4.3656,4.3656,2.0235,NONE,785
1770475758.9926558,49:19.0,3.941,-10.592,-2.9,4.3656,4.3656,1.4866,NONE,786
1770475758.999596,49:19.0,2.479,-8.297,-2.266,4.3656,4.3656,1.7705,NONE,787
1770475759.0071862,49:19.0,0.426,-6.058,-1.517,4.3656,4.3656,1.8274,NONE,788
1770475759.0149422,49:19.0,-0.565,-6.158,0.639,4.3656,4.3656,2.756,NONE,789
1770475759.0216408,49:19.0,0.237,-9.477,-0.191,4.217,4.3656,3.5614,NONE,790
1770475759.028655,49:19.0,0.498,-14.667,-2.316,4.3656,4.3656,3.3789,NONE,791
1770475759.0356846,49:19.0,-3.086,-10.669,-2.888,4.3656,4.3656,4.3656,NONE,792
1770475759.0426733,49:19.0,-2.957,-10.855,1.431,4.3656,4.3656,1.4554,NONE,793
1770475759.049486,49:19.0,2.615,-7.422,0.878,4.3656,4.3656,2.8365,NONE,794
1770475759.0566108,49:19.1,4.036,-6.338,-0.053,4.3656,4.3656,2.2824,NONE,795
1770475759.0636165,49:19.1,1.211,-4.28,-0.5,4.3656,4.3656,2.5199,NONE,796
1770475759.0705814,49:19.1,-2.615,-3.515,-2.431,4.3656,4.3656,2.8919,NONE,797
1770475759.0778737,49:19.1,-5.156,-2.675,-1.704,4.3656,4.3656,2.4952,NONE,798
1770475759.0848777,49:19.1,-4.242,-4.022,-3.72,4.3656,4.3656,2.7929,NONE,799
1770475759.0916822,49:19.1,-3.704,-4.778,-3.828,4.3656,4.3656,2.4806,NONE,800
1770475759.0985777,49:19.1,-2.96,-4.642,-3.811,4.3656,4.3656,2.4752,NONE,801
1770475759.105645,49:19.1,-2.768,-5.242,-3.62,4.3656,4.3656,2.8292,NONE,802
1770475759.112684,49:19.1,-3.342,-4.144,-5.146,4.3656,4.3656,2.1204,NONE,803
1770475759.119603,49:19.1,-6.149,0.916,-4.826,4.3656,4.3656,1.9911,NONE,804
1770475759.126581,49:19.1,-6.139,1.861,-4.828,4.3656,4.3656,1.2906,NONE,805
1770475759.1337013,49:19.1,-7.25,2.555,-5.079,4.3656,4.3656,1.1596,NONE,806
1770475759.140592,49:19.1,-5.63,3.043,-5.158,4.3656,4.3656,1.1413,NONE,807
1770475759.1491451,49:19.1,-5.993,4.608,-4.869,4.3656,4.3656,0.7392,NONE,808
1770475759.1556015,49:19.2,-8.211,3.945,-4.139,4.308,4.3656,1.6037,NONE,809
1770475759.1626215,49:19.2,-10.609,1.125,-5.111,3.9696,4.3656,1.8524,NONE,810
1770475759.1699903,49:19.2,-13.188,-0.825,-5.493,4.1675,4.3656,1.6573,NONE,811
1770475759.1767745,49:19.2,-13.396,-0.335,-5.197,4.3656,4.3656,0.5484,NONE,812
1770475759.1835504,49:19.2,-9.18,2.211,-5.795,4.3656,4.3656,-0.2048,NONE,813
1770475759.1907423,49:19.2,-6.137,6.812,-5.721,3.8802,4.3656,-0.7032,NONE,814
1770475759.1979573,49:19.2,-6.046,10.185,-4.922,2.6835,4.3656,-0.8426,NONE,815
1770475759.2046869,49:19.2,-6.252,9.266,-4.867,1.3784,4.3656,-0.1095,NONE,816
1770475759.211734,49:19.2,-6.764,5.261,-5.295,0.526,4.3656,-0.0053,NONE,817
1770475759.2187688,49:19.2,-8.96,1.426,-5.28,0.2787,4.3656,0.2017,NONE,818
1770475759.2257314,49:19.2,-11.437,0.093,-4.457,0.2875,4.3656,-0.3525,NONE,819
1770475759.2328355,49:19.2,-12.528,0.577,-4.613,0.2805,4.3656,-0.4009,NONE,820
1770475759.2397401,49:19.2,-12.609,1.16,-4.508,0.1788,4.3656,-0.3251,NONE,821
1770475759.2467027,49:19.2,-12.458,1.134,-4.661,0.0344,4.3656,0.008,NONE,822
1770475759.2539122,49:19.3,-14.293,0.574,-4.792,-0.0432,4.3656,-0.0687,NONE,823
1770475759.2606914,49:19.3,-17.344,0.057,-4.364,0.0024,4.1873,-0.2715,NONE,824
1770475759.2677116,49:19.3,-19.124,0.763,-4.721,0.0556,3.2869,-0.5696,NONE,825
1770475759.2750487,49:19.3,-18.653,1.17,-4.029,-0.0089,2.5082,-0.4238,NONE,826
1770475759.2820315,49:19.3,-17.94,1.459,-3.522,-0.0974,2.1434,-0.3116,NONE,827
1770475759.2888358,49:19.3,-17.98,1.562,-2.871,-0.1797,1.8782,-0.0727,NONE,828
1770475759.2959619,49:19.3,-18.44,1.57,-2.328,-0.2437,1.5388,0.0632,NONE,829
1770475759.3028455,49:19.3,-18.167,1.838,-2.811,-0.2842,1.1916,0.0317,NONE,830
1770475759.3098474,49:19.3,-17.818,2.914,-3.395,-0.411,0.9471,-0.041,NONE,831
1770475759.316723,49:19.3,-18.332,3.11,-3.622,-0.6277,0.5856,0.2177,NONE,832
1770475759.323814,49:19.3,-18.516,3.252,-2.962,-0.8585,0.0675,0.326,NONE,833
1770475759.3307421,49:19.3,-17.719,1.522,-3.519,-1.0335,-0.2907,0.8083,NONE,834
1770475759.337908,49:19.3,-17.277,1.187,-3.271,-1.0624,-0.6651,0.7301,NONE,835
1770475759.3450978,49:19.3,-17.444,1.646,-3.393,-1.121,-1.1218,0.5709,NONE,836
1770475759.3518019,49:19.4,-17.227,1.55,-3.45,-1.1816,-1.6346,0.3405,NONE,837
1770475759.3588006,49:19.4,-16.236,2.283,-4.022,-1.3198,-2.1785,0.1094,NONE,838
1770475759.365741,49:19.4,-15.755,1.345,-4.553,-1.5347,-2.5005,0.3788,NONE,839
1770475759.3729331,49:19.4,-16.88,0.385,-5.087,-1.5104,-2.8571,-0.0993,NONE,840
1770475759.3800387,49:19.4,-17.829,2.249,-5.125,-1.5673,-3.504,-0.7906,NONE,841
1770475759.3871694,49:19.4,-18.219,4.268,-6.149,-1.9843,-4.2951,-0.8584,NONE,842
1770475759.3940225,49:19.4,-19.277,6.852,-7.039,-2.7183,-4.3657,-1.2141,NONE,843
1770475759.4012136,49:19.4,-18.578,9.022,-9.417,-3.7034,-4.3657,-0.9181,NONE,844
1770475759.4079306,49:19.4,-16.514,7.29,-9.92,-4.3657,-4.3657,0.5436,NONE,845
1770475759.4151177,49:19.4,-15.406,6.479,-11.042,-4.3657,-4.3657,-0.5415,NONE,846
1770475759.4220886,49:19.4,-13.544,8.723,-10.415,-4.3657,-4.3657,-1.3539,NONE,847
1770475759.429038,49:19.4,-11.599,10.279,-10.932,-4.3657,-4.3657,-1.6455,NONE,848
1770475759.4361267,49:19.4,-9.281,9.121,-10.515,-4.3657,-4.3657,-1.453,NONE,849
1770475759.4432752,49:19.4,-8.599,6.802,-9.977,-4.3657,-4.3657,-1.6202,NONE,850
1770475759.4500072,49:19.5,-7.857,2.378,-9.022,-4.3657,-4.3657,-1.5234,NONE,851
1770475759.4568343,49:19.5,-6.075,-3.651,-9.3,-4.3657,-4.3657,-2.5463,NONE,852
1770475759.4638553,49:19.5,-5.216,-5.812,-9.276,-4.3657,-4.3657,-3.2137,NONE,853
1770475759.4712603,49:19.5,-6.343,-5.718,-7.721,-4.3657,-4.3657,-2.8561,NONE,854
1770475759.4780402,49:19.5,-8.874,-3.642,-7.106,-4.3657,-4.3657,-3.0146,NONE,855
1770475759.4850118,49:19.5,-10.946,1.436,-6.692,-4.3657,-4.3657,-3.8484,NONE,856
1770475759.4919024,49:19.5,-8.781,5.211,-7.467,-4.3657,-4.3657,-3.4182,NONE,857
1770475759.4989064,49:19.5,-1.22,3.905,-8.807,-4.3657,-4.3657,-3.1983,NONE,858
1770475759.5058188,49:19.5,5.69,1.273,-9.075,-4.3657,-4.3657,-3.3047,NONE,859
1770475759.5129082,49:19.5,9.637,-2.019,-7.013,-4.3657,-4.3657,-3.3537,NONE,860
1770475759.5204399,49:19.5,11.058,-3.29,-2.074,-4.3657,-4.3657,-3.3624,NONE,861
1770475759.5275004,49:19.5,9.243,-6.144,-1.507,-4.3657,-4.3657,-2.5386,NONE,862
1770475759.5350971,49:19.5,7.29,-8.728,-0.246,-4.3657,-4.3657,-2.6135,NONE,863
1770475759.5417595,49:19.5,6.092,-8.8,0.816,-4.3657,-4.3657,-2.4732,NONE,864
1770475759.5488195,49:19.5,5.247,-7.515,1.117,-4.3657,-4.0429,-2.175,NONE,865
1770475759.5558126,49:19.6,3.708,-4.914,-0.007,-4.3657,-3.7121,-2.2108,NONE,866
1770475759.5628607,49:19.6,2.835,-3.481,0.005,-4.3657,-3.4276,-2.5214,NONE,867
1770475759.5698133,49:19.6,2.067,-3.417,-0.39,-4.3657,-3.205,-2.4938,NONE,868
1770475759.5769057,49:19.6,1.794,-4.969,-2.046,-4.3657,-2.8871,-2.2837,NONE,869
1770475759.5843105,49:19.6,-0.55,-8.405,-3.642,-4.3657,-2.2226,-2.5006,NONE,870
1770475759.5913227,49:19.6,-5.8,-10.109,-4.46,-4.3657,-2.5006,-3.0305,NONE,871
1770475759.5980592,49:19.6,-8.738,-10.24,-1.849,-4.3657,-3.7932,-3.8999,NONE,872
1770475759.6052663,49:19.6,-6.072,-10.544,-1.469,-4.3657,-4.3657,-4.0576,NONE,873
1770475759.6121883,49:19.6,-0.337,-11.824,-0.849,-4.2074,-4.3657,-4.158,NONE,874
1770475759.6190364,49:19.6,3.263,-12.087,-0.017,-4.2936,-4.3657,-3.53,NONE,875
1770475759.6258547,49:19.6,4.845,-14.061,5.426,-3.7938,-3.6749,-3.0894,NONE,876
1770475759.6328454,49:19.6,4.723,-15.738,3.146,-3.4977,-3.5906,-2.3553,NONE,877
1770475759.6398835,49:19.6,6.194,-19.389,4.472,-2.9315,-2.9612,-2.0498,NONE,878
1770475759.6468685,49:19.6,6.051,-19.6,4.139,-2.0748,-2.1571,-1.972,NONE,879
1770475759.6540725,49:19.7,3.831,-19.6,3.881,-1.2273,-1.5573,-1.7437,NONE,880
1770475759.660883,49:19.7,0.663,-17.105,3.18,-0.722,-1.5314,-1.2151,NONE,881
1770475759.6684177,49:19.7,-0.572,-15.947,1.914,-0.38,-1.9121,-0.7745,NONE,882
1770475759.6746597,49:19.7,0.084,-15.612,1.395,0.0061,-2.2925,-0.9749,NONE,883
1770475759.6817944,49:19.7,2.816,-14.466,1.002,0.3331,-2.4757,-0.89,NONE,884
1770475759.688847,49:19.7,6.288,-12.977,1.055,0.4719,-2.2541,-0.8438,NONE,885
1770475759.6963687,49:19.7,8.898,-12.164,0.581,0.4598,-1.9233,-1.0308,NONE,886
1770475759.7032437,49:19.7,10.673,-11.96,2.594,0.4594,-1.3695,-0.7049,NONE,887
1770475760,49:19.7,11.673,-12.805,3.713,0.4479,-0.7342,-0.4734,NONE,888
1770475759.718016,49:19.7,11.927,-14.344,4.378,0.584,-0.1378,-0.1703,NONE,889
1770475759.7254293,49:19.7,10.822,-15.226,5.125,0.8549,0.4479,-0.1442,NONE,890
1770475759.732055,49:19.7,9.707,-16.179,5.835,1.1586,0.7735,0.0911,NONE,891
1770475759.739088,49:19.7,9.106,-17.253,6.359,1.5692,1.0828,0.2254,NONE,892
1770475759.7456741,49:19.7,8.458,-17.753,6.556,1.9905,1.3125,0.5585,NONE,893
1770475759.7528417,49:19.8,8.18,-17.822,6.321,2.4047,1.5496,0.6359,NONE,894
1770475759.7595382,49:19.8,8.711,-17.597,5.943,2.8129,1.8194,0.9258,NONE,895
1770475759.7665043,49:19.8,9.312,-16.628,5.347,3.1203,2.2639,1.1883,NONE,896
1770475759.773511,49:19.8,9.683,-15.119,4.448,3.2671,2.8509,1.261,NONE,897
1770475759.7805629,49:19.8,9.054,-13.829,3.653,3.2523,3.5857,1.4859,NONE,898
1770475759.7876725,49:19.8,8.19,-15.205,1.835,3.4311,4.3656,2.2207,NONE,899
1770475759.7945766,49:19.8,3.787,-16.069,0.792,3.7473,4.3656,1.9328,NONE,900
1770475759.801746,49:19.8,0.455,-14.291,1.536,4.0389,4.2435,1.657,NONE,901
1770475759.8085663,49:19.8,2.311,-13.994,1.251,4.3292,3.9475,2.2957,NONE,902
1770475759.8155932,49:19.8,3.682,-12.757,0.665,4.3656,4.0021,1.6972,NONE,903
1770475759.8229015,49:19.8,6.12,-10.417,-0.11,4.3656,4.3656,1.9638,NONE,904
1770475759.8294976,49:19.8,6.718,-7.046,-0.318,4.3656,4.3656,2.048,NONE,905
1770475759.8366163,49:19.8,6.307,-5.747,-0.263,4.1311,4.3656,2.8112,NONE,906
1770475759.8434842,49:19.8,4.544,-6.735,0.081,3.944,4.3656,3.2564,NONE,907
1770475759.8504403,49:19.9,2.809,-8.867,-0.407,4.1136,4.3656,3.7555,NONE,908
1770475759.8576508,49:19.9,-3.476,-9.104,0.11,4.2846,4.3656,3.4227,NONE,909
1770475759.8647125,49:19.9,-7.584,-11.712,1.23,4.3656,4.3656,3.5459,NONE,910
1770475759.8717275,49:19.9,-6.237,-11.274,0.632,4.3656,4.3656,2.09,NONE,911
1770475759.8787394,49:19.9,-2.168,-8.742,0.656,4.3656,4.3656,1.9805,NONE,912
1770475759.885653,49:19.9,-1.462,-6.448,0.802,4.3656,4.3656,3.3895,NONE,913
1770475759.892497,49:19.9,-1.134,-6.197,1.148,4.3656,4.3656,1.9726,NONE,914
1770475759.8994453,49:19.9,-1.553,-5.857,0.388,4.3656,4.3656,2.8525,NONE,915
1770475759.9064512,49:19.9,-2.565,-6.144,0.598,4.3656,4.3656,1.5406,NONE,916
1770475759.913633,49:19.9,-2.199,-3.778,-0.591,4.3656,4.3656,1.5965,NONE,917
1770475759.921474,49:19.9,-1.704,-2.132,-0.737,4.3656,4.3656,1.352,NONE,918
1770475759.928674,49:19.9,-2.476,-0.785,-2.28,4.3656,4.3656,1.6984,NONE,919
1770475759.935621,49:19.9,-4.307,-0.225,-3.041,4.3656,4.3656,1.6382,NONE,920
1770475759.9426322,49:19.9,-5.146,-1.199,-2.737,4.3656,4.3656,2.4552,NONE,921
1770475759.9496255,49:19.9,-6.804,-3.484,-4.165,4.3656,4.3656,2.2564,NONE,922
1770475759.956611,49:20.0,-7.355,-2.706,-3.898,4.3656,4.3656,1.7537,NONE,923
1770475759.9636085,49:20.0,-5.941,-1.129,-3.486,4.3656,4.3656,1.8277,NONE,924
1770475759.9705863,49:20.0,-6.833,0.146,-3.436,4.3656,4.3656,2.1396,NONE,925
1770475759.9777687,49:20.0,-7.671,0.837,-4.943,4.3656,4.3656,2.1958,NONE,926
1770475759.9845767,49:20.0,-9.755,1.11,-3.732,4.3656,4.3656,2.2126,NONE,927
1770475759.9915516,49:20.0,-9.967,2.292,-3.45,4.3656,4.3656,1.597,NONE,928
1770475759.998749,49:20.0,-10.293,4.364,-2.452,4.3656,4.3656,0.9326,NONE,929
1770475760.0057297,49:20.0,-9.896,5.496,-2.141,4.3656,4.3656,1.2422,NONE,930
1770475760.0127118,49:20.0,-9.314,4.9,-1.971,4.3656,4.3656,1.1787,NONE,931
1770475760.019514,49:20.0,-8.75,4.733,-1.517,4.2082,4.3656,0.7899,NONE,932
1770475760.0265565,49:20.0,-8.618,4.673,-1.232,3.7438,4.3656,0.7658,NONE,933
1770475760.0335507,49:20.0,-8.185,3.826,-1.641,3.3605,4.3656,0.8899,NONE,934
1770475760.040805,49:20.0,-8.096,2.615,-1.536,3.2551,4.3656,0.9411,NONE,935
1770475760.0475054,49:20.0,-9.625,3.505,-1.596,3.0483,4.3656,0.4017,NONE,936
1770475760.0547578,49:20.1,-10.676,4.582,-1.184,2.6228,4.3656,0.2731,NONE,937
1770475760.061698,49:20.1,-10.807,3.871,-1.184,2.2227,4.3588,0.2918,NONE,938
1770475760.0686655,49:20.1,-10.669,2.201,-2.053,2.0447,4.3491,0.3011,NONE,939
1770475760.075722,49:20.1,-11.788,1.459,-3.019,2.0716,4.1154,-0.0139,NONE,940
1770475760.0827386,49:20.1,-12.109,2.39,-2.761,2.1137,3.9816,-0.5673,NONE,941
1770475760.0897727,49:20.1,-12.525,4.405,-2.474,1.7419,3.857,-0.4836,NONE,942
1770475760.0966027,49:20.1,-13.714,4.998,-2.321,1.2994,3.8255,-0.095,NONE,943
1770475760.1036904,49:20.1,-15.614,4.8,-1.957,0.9064,3.4288,0.2571,NONE,944
1770475760.1106443,49:20.1,-16.286,4.189,-2.18,0.6153,2.8595,0.3974,NONE,945
1770475760.1177108,49:20.1,-16.188,4.673,-2.534,0.4174,2.3686,0.2125,NONE,946
1770475760.124823,49:20.1,-16.26,5.871,-2.476,0.0841,1.9581,0.1575,NONE,947
1770475760.1318483,49:20.1,-16.626,6.929,-3.57,-0.2422,1.5644,0.0938,NONE,948
1770475760.138759,49:20.1,-16.935,6.62,0.072,-0.9497,1.293,0.4819,NONE,949
1770475760.1459098,49:20.1,-17.195,6.003,-0.749,-1.4631,1.0445,0.9439,NONE,950
1770475760.1528258,49:20.2,-16.648,4.209,-6.281,-1.4192,0.7745,0.775,NONE,951
1770475760.1597986,49:20.2,-16.423,1.61,-0.737,-1.5063,0.5404,0.3593,NONE,952
1770475760.1668878,49:20.2,-17.741,1.873,-1.352,-1.4309,0.0064,0.8182,NONE,953
1770475760.173853,49:20.2,-17.916,2.39,-1.199,-1.4104,-0.7111,0.7021,NONE,954
1770475760.1825025,49:20.2,-17.152,2.873,-0.072,-1.5259,-1.3959,0.4177,NONE,955
1770475760.187788,49:20.2,-15.444,1.756,-0.627,-1.5408,-1.6847,0.0548,NONE,956
1770475760.1949623,49:20.2,-15.202,2.01,-1.376,-1.5195,-1.9232,-0.2077,NONE,957
1770475760.2018507,49:20.2,-15.781,3.132,-2.455,-1.6037,-2.244,-0.1749,NONE,958
1770475760.2094376,49:20.2,-16.49,3.941,-2.385,-1.8742,-2.6304,-0.5228,NONE,959
1770475760.2161443,49:20.2,-16.451,3.625,-2.323,-2.1841,-3.0631,-0.9534,NONE,960
1770475760.2231238,49:20.2,-16.997,5.835,-2.799,-2.5652,-3.7084,-0.9935,NONE,961
1770475760.2299862,49:20.2,-16.514,8.623,-3.07,-3.4324,-4.3449,-1.3143,NONE,962
1770475760.2370386,49:20.2,-14.461,9.116,-4.491,-4.3657,-4.3657,-0.8151,NONE,963
1770475760.2439232,49:20.2,-12.719,7.118,-5.814,-4.3657,-4.3657,0.3448,NONE,964
1770475760.2513254,49:20.3,-13.657,4.453,-5.524,-4.3657,-4.3657,-0.4494,NONE,965
1770475760.2580142,49:20.3,-13.944,5.032,-5.977,-4.3657,-4.3657,-1.6886,NONE,966
1770475760.2651978,49:20.3,-12.161,4.687,-6.359,-4.3657,-4.3657,-0.7893,NONE,967
1770475760.2721064,49:20.3,-10.379,3.376,-5.422,-4.3657,-4.3657,-1.3283,NONE,968
1770475760.2790017,49:20.3,-8.723,1.651,-5.118,-4.3657,-4.3657,-1.8608,NONE,969
1770475760.2858808,49:20.3,-8.9,1.29,-4.008,-4.3657,-4.3657,-2.0685,NONE,970
1770475760.2928863,49:20.3,-10.286,1.357,-3.407,-4.3657,-4.3657,-2.1485,NONE,971
1770475760.2999313,49:20.3,-9.666,2.084,-3.213,-4.3657,-4.3657,-2.3891,NONE,972
1770475760.3072755,49:20.3,-7.675,2.852,-3.828,-4.3657,-4.3657,-2.7021,NONE,973
1770475760.3138585,49:20.3,-6.541,0.629,-3.484,-4.3657,-4.3657,-2.327,NONE,974
1770475760.3211687,49:20.3,-4.895,-0.56,-3.091,-4.3657,-4.3657,-3.0052,NONE,975
1770475760.3286834,49:20.3,-2.931,0.342,-3.505,-4.3657,-4.3657,-3.2193,NONE,976
1770475760.335966,49:20.3,-1.192,3.244,-3.118,-4.3657,-4.3657,-3.4324,NONE,977
1770475760.3428178,49:20.3,-0.05,2.771,-3.228,-4.3657,-4.3657,-2.5846,NONE,978
1770475760.350109,49:20.3,-0.62,-0.562,-2.094,-4.3657,-4.3657,-2.5075,NONE,979
1770475760.3568885,49:20.4,-1.883,-5.503,-2.74,-4.3657,-4.3657,-2.197,NONE,980
1770475760.3644469,49:20.4,-6.259,-10.592,-1.215,-4.3657,-4.3657,-2.4056,NONE,981
1770475760.3709173,49:20.4,-7.36,-10.8,0.172,-4.3657,-4.3657,-3.2149,NONE,982
1770475760.377862,49:20.4,-3.149,-6.958,1.381,-4.3657,-4.3657,-4.0564,NONE,983
1770475760.3848884,49:20.4,3.498,-3.902,1.651,-4.3657,-4.3657,-3.8682,NONE,984
1770475760.391794,49:20.4,8.463,-3.208,2.027,-4.3657,-4.3657,-3.2714,NONE,985
1770475760.3988495,49:20.4,8.738,-4.189,2.615,-4.3657,-4.3657,-2.7683,NONE,986
1770475760.4060495,49:20.4,6.606,-5.237,3.263,-4.3657,-3.745,-2.4149,NONE,987
1770475760.4129272,49:20.4,3.809,-7.108,3.307,-4.3657,-3.0545,-2.5258,NONE,988
1770475760.419816,49:20.4,1.381,-7.273,3.845,-4.3657,-2.7897,-2.5944,NONE,989
1770475760.4269865,49:20.4,0.447,-7.003,3.747,-4.3657,-2.7474,-2.2898,NONE,990
1770475760.4337845,49:20.4,1.936,-7.666,2.443,-4.3657,-2.4016,-1.7846,NONE,991
1770475760.4408278,49:20.4,0.849,-7.513,0.744,-4.3657,-1.6234,-1.854,NONE,992
1770475760.448107,49:20.4,-5.979,-11.58,-0.813,-4.3329,-1.0802,-1.2557,NONE,993
1770475760.4551635,49:20.5,-15.449,-13.872,1.105,-3.3979,-2.7979,-2.4312,NONE,994
1770475760.4621208,49:20.5,-11.716,-10.58,1.558,-2.6629,-4.3657,-2.8173,NONE,995
1770475760.4689343,49:20.5,-1.026,-7.319,1.359,-2.59,-4.3657,-2.8793,NONE,996
1770475760.475821,49:20.5,6.434,-4.118,1.067,-3.0293,-4.3657,-2.22,NONE,997
1770475760.4827666,49:20.5,7.154,-6.154,1.275,-3.6432,-3.1059,-1.2121,NONE,998
1770475760.4905384,49:20.5,5.505,-11.365,4.108,-3.6941,-1.861,-0.8671,NONE,999
1770475760.496991,49:20.5,0.189,-11.556,3.718,-3.233,-1.7698,-1.6405,NONE,1000
1770475760.503978,49:20.5,-0.065,-11.877,3.409,-2.9635,-2.2447,-1.0962,NONE,1001
1770475760.5110686,49:20.5,1.775,-12.202,3.189,-2.6636,-2.175,-1.1742,NONE,1002
1770475760.5181186,49:20.5,3.244,-11.941,3.084,-2.3756,-1.7774,-0.923,NONE,1003
1770475760.5251307,49:20.5,3.354,-11.259,2.259,-2.2631,-1.3059,-0.8663,NONE,1004
1770475760.5324104,49:20.5,2.306,-11.958,2.405,-2.2136,-0.9394,-0.6877,NONE,1005
1770475760.5392594,49:20.5,0.584,-14.178,2.9,-2.0346,-0.858,-0.6498,NONE,1006
1770475760.5458798,49:20.5,-0.33,-16.284,3.438,-1.6154,-1.0359,-0.9659,NONE,1007
1770475761,49:20.6,0.287,-16.985,4.469,-1.0781,-1.3448,-1.2176,NONE,1008
1770475760.5598927,49:20.6,2.428,-16.703,5.407,-0.6071,-1.5583,-1.2657,NONE,1009
1770475760.5668933,49:20.6,5.28,-15.817,6.678,-0.3296,-1.537,-0.8755,NONE,1010
1770475760.5738792,49:20.6,7.632,-17.035,3.814,-0.0071,-1.4348,-0.52,NONE,1011
1770475760.5810554,49:20.6,10.417,-17.435,6.292,0.6664,-0.4918,-0.759,NONE,1012
1770475760.5882933,49:20.6,10.915,-15.336,5.764,1.0837,0.3224,-0.6723,NONE,1013
1770475760.5945876,49:20.6,10.305,-14.829,5.706,1.2949,0.8118,0.0083,NONE,1014
1770475760.602016,49:20.6,9.446,-15.913,5.146,1.6567,1.266,0.3132,NONE,1015
1770475760.6086285,49:20.6,7.584,-15.037,5.139,2.0047,1.6145,-0.1851,NONE,1016
1770475760.6157515,49:20.6,6.764,-13.803,5.522,2.0767,1.6702,0.352,NONE,1017
1770475760.6228504,49:20.6,7.295,-14.621,4.862,2.1484,1.7917,0.5954,NONE,1018
1770475760.6299164,49:20.6,7.986,-14.848,4.888,2.3041,2.1374,0.4477,NONE,1019
1770475760.6368425,49:20.6,8.675,-14.494,5.539,2.4372,2.6445,0.6141,NONE,1020
1770475760.6436696,49:20.6,8.317,-14.288,5.991,2.4762,3.2612,0.5288,NONE,1021
1770475760.6507833,49:20.6,7.381,-15.468,5.687,2.677,3.7331,1.0597,NONE,1022
1770475760.6577337,49:20.7,5.828,-16.126,4.802,3.0258,3.94,1.1199,NONE,1023
1770475760.6645727,49:20.7,5.06,-16.025,4.398,3.3923,4.143,0.9876,NONE,1024
1770475760.6716561,49:20.7,4.252,-15.329,4.043,3.7009,4.3372,1.5479,NONE,1025
1770475760.6786475,49:20.7,2.036,-14.745,3.974,3.9384,4.3656,2.1373,NONE,1026
1770475760.6856785,49:20.7,-0.347,-13.504,4.108,4.0189,4.1507,2.2453,NONE,1027
1770475760.6924906,49:20.7,2.117,-13.805,2.426,4.136,3.7716,2.4236,NONE,1028
1770475760.6994796,49:20.7,5.637,-14.243,1.448,4.3656,4.3656,2.4189,NONE,1029
1770475760.7065501,49:20.7,6.003,-11.616,1.093,4.3656,4.3656,2.2352,NONE,1030
1770475760.7135715,49:20.7,5.084,-10.523,0.749,4.3656,4.3656,2.7308,NONE,1031
1770475760.7206254,49:20.7,0.816,-8.642,0.852,4.3656,4.3656,2.6498,NONE,1032
1770475760.727788,49:20.7,-4.175,-6.173,2.388,4.3656,4.3656,2.8017,NONE,1033
1770475761,49:20.7,-3.62,-6.398,1.069,4.1881,4.3656,3.0398,NONE,1034
1770475760.7415688,49:20.7,0.746,-9.168,-0.768,4.3656,4.3615,2.9601,NONE,1035
1770475760.7485027,49:20.7,1.811,-6.094,-0.605,4.3656,4.3656,1.8294,NONE,1036
1770475760.7555203,49:20.8,1.055,-5.307,-0.519,4.3656,4.3656,2.6649,NONE,1037
1770475760.7625515,49:20.8,-4.555,-4.867,2.22,4.3656,4.3656,1.8071,NONE,1038
1770475760.7695584,49:20.8,-7.613,-5.082,0.443,4.2862,4.1917,2.0927,NONE,1039
1770475760.777449,49:20.8,-2.505,-13.592,1.864,4.3656,4.1895,3.5425,NONE,1040
1770475760.7852619,49:20.8,-11.279,-0.761,6.261,4.3656,3.8395,-0.2671,NONE,1041
1770475760.7916684,49:20.8,-3.773,-5.144,1.364,4.3656,2.3595,3.6725,NONE,1042
1770475760.7987154,49:20.8,0.993,-7.312,-0.842,4.3656,3.5766,0.0853,NONE,1043
1770475760.8057373,49:20.8,-0.507,2.086,-0.022,4.3656,3.8721,1.2546,NONE,1044
1770475760.8126266,49:20.8,-2.074,2.759,-0.373,4.3163,3.9371,2.4062,NONE,1045
1770475760.8196342,49:20.8,-3.627,-1.878,-1.22,4.1491,4.1901,2.0644,NONE,1046
1770475760.8266406,49:20.8,-5.178,-4.646,-2.421,4.3656,4.3656,1.6098,NONE,1047
1770475760.8337266,49:20.8,-8.754,-4.326,-0.811,4.3656,4.3656,1.3202,NONE,1048
1770475760.8408694,49:20.8,-11.087,-1.766,-2.771,4.3656,3.968,1.0409,NONE,1049
1770475760.8477614,49:20.8,-8.044,1.22,-1.354,4.3656,3.6708,0.0228,NONE,1050
1770475760.8545167,49:20.9,-3.615,5.075,-1.383,4.3656,4.0224,0.4906,NONE,1051
1770475760.8616571,49:20.9,-1.565,4.304,-2.651,4.3448,4.3656,1.244,NONE,1052
1770475760.8685277,49:20.9,-2.658,0.962,-2.424,4.29,4.3656,1.6237,NONE,1053
1770475760.8754766,49:20.9,-8.527,2.546,-0.715,4.048,4.3656,0.8079,NONE,1054
1770475760.8825185,49:20.9,-11.257,3.151,-0.677,3.6335,4.3656,0.9819,NONE,1055
1770475760.8894758,49:20.9,-11.372,2.641,0.538,3.2791,4.3656,-0.025,NONE,1056
1770475760.8967297,49:20.9,-11.37,3.687,1.067,2.7596,4.3656,0.5745,NONE,1057
1770475760.9036975,49:20.9,-10.154,2.976,1.45,2.2222,4.3078,0.2967,NONE,1058
1770475760.9104826,49:20.9,-8.285,1.323,0.675,1.9251,4.3084,1.232,NONE,1059
1770475760.917477,49:20.9,-8.809,0.873,0.486,1.7607,4.3656,0.8368,NONE,1060
1770475760.9248755,49:20.9,-8.893,-0.22,-0.304,1.8125,4.3656,1.3655,NONE,1061
1770475760.9315946,49:20.9,-9.19,0.127,0.019,1.9412,4.3656,1.1972,NONE,1062
1770475760.9384835,49:20.9,-9.113,1.553,-0.122,1.8612,4.3656,1.2148,NONE,1063
1770475760.9457233,49:20.9,-10.544,2.735,-0.182,1.5291,4.3656,1.5456,NONE,1064
1770475760.9526281,49:21.0,-12.7,1.759,-0.388,1.2426,4.3656,1.7758,NONE,1065
1770475760.959774,49:21.0,-14.891,0.345,-0.852,1.2741,4.3444,1.3596,NONE,1066
1770475760.966802,49:21.0,-15.499,1.067,-1.048,1.3255,3.6024,0.6891,NONE,1067
1770475760.9736211,49:21.0,-14.58,2.043,-1.682,1.299,3.0116,0.7658,NONE,1068
1770475760.9806926,49:21.0,-12.441,2.153,-1.603,1.2672,2.934,0.5189,NONE,1069
1770475760.987686,49:21.0,-12.733,3.455,-1.601,1.1114,3.0113,0.0778,NONE,1070
1770475760.9945629,49:21.0,-12.929,3.419,-2.01,1.0637,3.256,0.0814,NONE,1071
1770475761.0017996,49:21.0,-16.384,6.45,-0.88,0.6225,3.0024,-0.5481,NONE,1072
1770475761.0087833,49:21.0,-17.188,6.692,-0.799,-0.0196,2.0627,0.4796,NONE,1073
1770475761.0157812,49:21.0,-15.602,5.072,-2.357,-0.3913,1.7821,0.5548,NONE,1074
1770475761.0227451,49:21.0,-15.722,4.864,-3.015,-0.6359,1.8463,0.4804,NONE,1075
1770475761.0300019,49:21.0,-16.719,3.764,-3.161,-0.9459,2.0122,-0.2502,NONE,1076
1770475761,49:21.0,-18.916,5.742,-1.838,-1.1968,1.3268,0.3235,NONE,1077
1770475761.0440936,49:21.0,-18.71,5.819,-3.986,-1.7746,1.0261,0.5488,NONE,1078
1770475761.0507135,49:21.1,-19.6,7.929,-4.733,-2.2925,0.2121,1.0043,NONE,1079
1770475761.0577245,49:21.1,-19.6,4.371,-5.024,-2.6319,-0.7003,0.3006,NONE,1080
1770475761.0650065,49:21.1,-19.6,3.185,-5.278,-2.8342,-1.4838,0.1916,NONE,1081
1770475761.0718758,49:21.1,-19.6,0.412,-7.092,-2.5095,-2.6328,-0.3837,NONE,1082
1770475761.0789702,49:21.1,-19.6,-1.177,-4.087,-1.8289,-4.3657,-0.3439,NONE,1083
1770475761.0858667,49:21.1,-17.006,1.036,-3.819,-1.4566,-4.3657,-1.0788,NONE,1084
1770475761.093472,49:21.1,-13.004,4.627,-3.773,-1.5469,-4.3657,-1.127,NONE,1085
1770475761.1020858,49:21.1,-11.025,5.481,-4.333,-2.0359,-4.3657,-0.3957,NONE,1086
1770475761.109295,49:21.1,-12.298,6.608,-4.067,-2.6093,-4.3657,-0.627,NONE,1087
1770475761.1163642,49:21.1,-14.832,8.108,-3.859,-3.3696,-4.3657,-0.7123,NONE,1088
1770475761.1236382,49:21.1,-12.496,5.943,-4.357,-3.9718,-4.3657,-0.7332,NONE,1089
1770475761.1302886,49:21.1,-7.838,5.914,-4.204,-4.3657,-4.3657,-0.7738,NONE,1090
1770475761.1371026,49:21.1,-5.309,5.252,-3.876,-4.3657,-4.3657,-1.0764,NONE,1091
1770475761.1438525,49:21.1,-4.998,3.278,-3.9,-4.3657,-4.3657,-0.8335,NONE,1092
1770475761.1507425,49:21.2,-9.094,2.294,-2.067,-4.3657,-4.3657,-1.1632,NONE,1093
1770475761.1578097,49:21.2,-11.135,1.153,-1.581,-4.3657,-4.3657,-0.8771,NONE,1094
1770475761.165513,49:21.2,-11.027,-0.735,-2.22,-4.3657,-4.3657,-1.1389,NONE,1095
1770475761.1729963,49:21.2,-9.436,-1.122,-1.967,-4.3657,-4.3657,-1.3395,NONE,1096
1770475761.179882,49:21.2,-11.372,6.931,-0.617,-4.3657,-4.3657,-3.4871,NONE,1097
1770475761.1867926,49:21.2,-6.73,2.83,-2.302,-4.3657,-4.3657,-0.5825,NONE,1098
1770475761.1942585,49:21.2,0.574,-6.917,-3.742,-4.3657,-4.3657,-1.0551,NONE,1099
1770475761.2008767,49:21.2,6.955,-14.497,-4.622,-4.3657,-4.3657,-1.2672,NONE,1100
1770475761.2080522,49:21.2,4.488,-10.264,-0.306,-3.7457,-4.3657,-3.4065,NONE,1101
1770475761.2146115,49:21.2,0.419,3.981,2.156,-3.9591,-4.3657,-3.2504,NONE,1102
1770475761.2219613,49:21.2,-0.134,4.606,2.342,-4.3657,-4.3657,-2.4086,NONE,1103
1770475761.2287269,49:21.2,1.321,-1.704,0.861,-4.3657,-4.3657,-2.5255,NONE,1104
1770475761.2361538,49:21.2,1.436,-3.431,1.838,-4.3657,-4.3657,-3.2658,NONE,1105
1770475761.2428145,49:21.2,0.519,-4.577,1.983,-4.3657,-4.3657,-2.7126,NONE,1106
1770475761.2498405,49:21.2,-0.957,-6.56,2.574,-4.3657,-4.2048,-2.7628,NONE,1107
1770475761.2569077,49:21.3,-1.761,-8.197,3.476,-4.3657,-4.3635,-2.5566,NONE,1108
1770475761.2639768,49:21.3,-0.553,-6.532,4.388,-4.3657,-4.3657,-2.8398,NONE,1109
1770475761.270811,49:21.3,1.4,-4.974,4.661,-4.3657,-4.291,-2.29,NONE,1110
1770475761.2778554,49:21.3,1.967,-4.194,4.405,-4.3657,-3.9907,-2.2823,NONE,1111
1770475761.2849126,49:21.3,2.613,-5.328,4.139,-4.3657,-3.7014,-1.8091,NONE,1112
1770475761.2918515,49:21.3,3.584,-8.211,3.208,-4.3657,-3.1091,-1.3471,NONE,1113
1770475761.2989898,49:21.3,2.522,-10.369,2.539,-4.3657,-2.3101,-1.2472,NONE,1114
1770475761.306019,49:21.3,0.306,-10.925,2.646,-4.3657,-1.8399,-1.0215,NONE,1115
1770475761.3131008,49:21.3,-1.036,-10.31,2.713,-4.1844,-1.5817,-1.0036,NONE,1116
1770475761.3199983,49:21.3,-2.548,-9.4,3.134,-4.0429,-1.4589,-1.0664,NONE,1117
1770475761.3268595,49:21.3,-3.85,-9.161,3.12,-4.0167,-1.6109,-1.0267,NONE,1118
1770475761.334315,49:21.3,-3.998,-10.025,4.211,-4.047,-1.9276,-1.0913,NONE,1119
1770475761.341178,49:21.3,-3.161,-10.573,4.615,-4.1131,-2.0969,-1.3735,NONE,1120
1770475761.3481255,49:21.3,-2.876,-11.281,4.68,-4.0177,-2.2632,-1.3757,NONE,1121
1770475761.3550937,49:21.4,-1.345,-12.865,3.996,-3.6401,-2.4169,-0.9807,NONE,1122
1770475761.3619626,49:21.4,0.816,-14.224,3.429,-3.0233,-2.2287,-1.1997,NONE,1123
1770475761.368851,49:21.4,1.694,-12.444,3.555,-2.4545,-1.841,-1.119,NONE,1124
1770475761.375993,49:21.4,1.876,-10.099,3.778,-2.2828,-1.643,-0.8709,NONE,1125
1770475761.3828819,49:21.4,2.62,-10.415,2.95,-2.1424,-1.2099,-0.6876,NONE,1126
1770475761.3896728,49:21.4,1.888,-8.498,2.57,-2.1372,-0.8539,-0.6923,NONE,1127
1770475761.396741,49:21.4,0.967,-8.185,2.022,-2.2163,-0.518,-0.3901,NONE,1128
1770475761.4038484,49:21.4,-0.979,-9.728,1.448,-2.2147,-0.243,-0.4225,NONE,1129
1770475761.4108813,49:21.4,-3.749,-11.037,1.625,-2.0935,-0.3676,-0.5521,NONE,1130
1770475761.4178517,49:21.4,-5.228,-12.372,1.833,-1.8651,-0.8823,-0.7534,NONE,1131
1770475761.4249306,49:21.4,-4.371,-13.453,2.11,-1.6216,-1.3055,-0.9902,NONE,1132
1770475761.4320068,49:21.4,-2.921,-14.774,2.582,-1.3636,-1.443,-0.9718,NONE,1133
1770475761.4393451,49:21.4,-2.347,-16.124,3.376,-1.0441,-1.5088,-0.9357,NONE,1134
1770475761.4460306,49:21.4,-1.22,-16.576,4.187,-0.7087,-1.7463,-0.8001,NONE,1135
1770475761.4529796,49:21.5,1.433,-16.66,4.955,-0.445,-1.9548,-0.7659,NONE,1136
1770475761.4598782,49:21.5,5.111,-16.021,6.242,-0.3757,-1.794,-0.6751,NONE,1137
1770475761.4667742,49:21.5,8.013,-16.887,5.754,-0.4385,-1.266,0.4734,NONE,1138
1770475761.473735,49:21.5,8.297,-18.064,4.165,-0.1595,-0.2959,0.207,NONE,1139
1770475761.480582,49:21.5,6.048,-17.899,3.96,0.3836,0.3309,0.7574,NONE,1140
1770475761.4877183,49:21.5,5.123,-19.121,2.967,1.1366,0.5728,0.8608,NONE,1141
1770475761.4945395,49:21.5,4.969,-17.296,2.948,1.8882,0.9678,0.5292,NONE,1142
1770475761.5018933,49:21.5,4.046,-14.2,3.469,2.1352,1.3045,0.702,NONE,1143
1770475761.5086334,49:21.5,3.285,-14.702,3.639,2.1979,1.489,1.0992,NONE,1144
1770475761.5155342,49:21.5,2.452,-15.329,3.515,2.3062,1.6687,0.9944,NONE,1145
1770475761.5225563,49:21.5,1.744,-17.1,3.613,2.6068,1.7003,1.1157,NONE,1146
1770475761.529486,49:21.5,1.629,-18.456,3.603,3.1468,1.609,0.8491,NONE,1147
1770475761.5365136,49:21.5,3.18,-17.98,3.711,3.7473,1.6847,0.7685,NONE,1148
1770475761.5434802,49:21.5,4.634,-15.832,3.907,4.0212,1.9047,0.928,NONE,1149
1770475761.5505004,49:21.5,5.577,-15.143,3.378,4.1427,2.3687,1.2053,NONE,1150
1770475761.5574899,49:21.6,5.156,-15.456,3.175,4.3656,2.7629,1.4913,NONE,1151
1770475762,49:21.6,0.369,-14.028,2.443,4.3656,3.2275,1.5461,NONE,1152
1770475761.5727153,49:21.6,2.991,-11.224,2.129,4.3656,3.456,1.7709,NONE,1153
1770475761.5794928,49:21.6,2.462,-10.061,1.581,4.3656,3.6043,2.1333,NONE,1154
1770475761.5864642,49:21.6,2.077,-9.046,1,4.3656,3.9335,2.5587,NONE,1155
1770475761.593522,49:21.6,1,-7.709,0.919,4.3656,4.0496,2.6983,NONE,1156
1770475761.6006632,49:21.6,0.471,-6.807,0.986,4.3656,4.1568,2.6626,NONE,1157
1770475761.6074338,49:21.6,0.067,-5.759,0.849,4.3656,4.3656,2.562,NONE,1158
1770475761.614425,49:21.6,-1.038,-6.304,1.395,4.3656,4.3656,2.5437,NONE,1159
1770475761.6214516,49:21.6,-1.495,-7.539,1.727,4.3656,4.3384,2.46,NONE,1160
1770475761.629108,49:21.6,-1.445,-8.003,1.778,4.3656,4.3621,2.493,NONE,1161
1770475761.6357515,49:21.6,-1.981,-7.34,1.816,4.3656,4.3656,2.3563,NONE,1162
1770475761.6427417,49:21.6,-2.474,-6.912,1.665,4.3656,4.3335,2.4315,NONE,1163
1770475761.6495707,49:21.6,-2.519,-6.979,1.842,4.3656,4.1893,2.5057,NONE,1164
1770475761.656593,49:21.7,-1.926,-7.281,0.95,4.3656,4.2068,2.7114,NONE,1165
1770475761.663524,49:21.7,-1.45,-5.883,0.402,4.3656,4.3656,2.4941,NONE,1166
1770475761.6705165,49:21.7,-1.208,-3.376,-0.227,4.3656,4.3656,2.4886,NONE,1167
1770475761.6776254,49:21.7,-1.381,-1.773,-0.596,4.3656,4.3656,2.6021,NONE,1168
1770475761.6845837,49:21.7,-1.431,-1.988,-1.67,4.3656,4.3656,2.7695,NONE,1169
1770475761.6923554,49:21.7,-2.888,-1.412,-3.051,4.3656,4.3656,2.9643,NONE,1170
1770475761.6997137,49:21.7,-5.979,-2.357,-5.051,4.3656,4.3656,2.8983,NONE,1171
1770475761.7065103,49:21.7,-6.785,-1.175,-4.567,4.3656,4.3656,2.7236,NONE,1172
1770475761.713534,49:21.7,-6.618,0.392,-4.596,4.3656,4.3656,2.6915,NONE,1173
1770475761.7207158,49:21.7,-8.082,4.201,-4.807,4.3656,4.3656,1.8538,NONE,1174
1770475761.727498,49:21.7,-8.687,6.769,-3.85,4.3656,4.3656,2.121,NONE,1175
1770475761.7346084,49:21.7,-8.336,6.405,-3.831,4.3656,4.3656,2.321,NONE,1176
1770475761.7415862,49:21.7,-8.427,5.144,-3.292,4.3656,4.3656,2.5612,NONE,1177
1770475761.7484446,49:21.7,-8.235,2.505,-3.149,4.3656,4.3656,3.391,NONE,1178
1770475761.7564073,49:21.8,-10.544,0.244,-2.73,4.3656,4.3656,3.0816,NONE,1179
1770475761.7638235,49:21.8,-12.461,-1.677,-0.055,4.3656,4.3656,2.5414,NONE,1180
1770475761.7704623,49:21.8,-9.611,0.361,-3.957,4.3656,3.7084,1.6462,NONE,1181
1770475761.7774704,49:21.8,-7.482,4.503,-3.737,4.3656,3.7172,1.515,NONE,1182
1770475761.784516,49:21.8,-7.022,6.065,-2.62,4.3656,3.7722,1.434,NONE,1183
1770475761.7914507,49:21.8,-6.015,4.182,-5.197,4.3656,4.3401,0.4859,NONE,1184
1770475761.798592,49:21.8,-7.549,0.804,-3.029,4.3656,4.3656,1.9131,NONE,1185
1770475761.8056207,49:21.8,-10.613,2.488,-2.589,4.3656,4.3656,-0.5169,NONE,1186
1770475761.8125951,49:21.8,-11.118,4.582,-1.971,4.3656,3.8893,0.3537,NONE,1187
1770475761.8195941,49:21.8,-11.063,6.106,-3.134,4.3629,3.598,-0.4209,NONE,1188
1770475762,49:21.8,-11.592,8.922,-3.225,3.5753,3.2671,-0.6916,NONE,1189
1770475761.8336108,49:21.8,-6.84,9.396,-1.629,2.6277,4.1166,-0.2669,NONE,1190
1770475761.8403885,49:21.8,-9.042,7.594,-3.565,1.4771,4.2645,0.0637,NONE,1191
1770475761.8478131,49:21.8,-13.75,4.259,-3.658,1.1798,4.3656,-0.1435,NONE,1192
1770475761.8546188,49:21.9,-19.406,3.823,-2.895,1.1111,3.472,-0.6893,NONE,1193
1770475761.8620055,49:21.9,-19.6,4.658,-2.216,0.9675,2.2155,-0.4413,NONE,1194
1770475761.8689597,49:21.9,-18.138,5.405,-2.73,0.6659,1.4807,-0.4042,NONE,1195
1770475761.8756833,49:21.9,-17.461,5.843,-2.936,0.3749,1.3594,-0.3448,NONE,1196
1770475761.8826776,49:21.9,-19.043,5.513,-3.393,0.1227,0.9713,-0.7926,NONE,1197
1770475761.8896744,49:21.9,-19.595,6.214,-2.897,-0.0851,0.2591,-0.7388,NONE,1198
1770475761.8983343,49:21.9,-18.854,6.661,-4.137,-0.5461,-0.3701,-0.4231,NONE,1199
1770475762,49:21.9,-18.999,5.099,-2.641,-0.6953,-0.8448,-0.4863,NONE,1200
1770475761.9118838,49:21.9,-17.652,5.747,-2.414,-0.8893,-1.2853,-0.3425,NONE,1201
1770475761.9187286,49:21.9,-16.827,6.998,0.189,-1.2393,-1.5973,-0.0581,NONE,1202
1770475761.9259763,49:21.9,-16.334,3.141,-1.091,-1.5052,-1.635,0.2101,NONE,1203
1770475761.9327083,49:21.9,17.803,2.211,0.782,-1.3366,-1.8775,-0.4664,NONE,1204
1770475761.9399934,49:21.9,-17.916,3.383,-0.725,-1.3181,-2.4654,-0.1423,NONE,1205
1770475761.9468896,49:21.9,-16.916,3.656,-0.639,-1.4448,-3.0181,-0.0474,NONE,1206
1770475761.9538677,49:22.0,-15.126,3.823,-0.488,-1.6554,-3.346,-0.0254,NONE,1207
1770475761.9610217,49:22.0,-13.688,4.194,-0.328,-1.9316,-3.3637,-0.3621,NONE,1208
1770475761.9678502,49:22.0,-12.803,6.515,-2.366,-2.7121,-3.157,-1.8662,NONE,1209
1770475761.9748287,49:22.0,-13.554,4.297,-1.103,-3.2033,-3.0417,-2.206,NONE,1210
1770475761.9818275,49:22.0,-13.918,6.022,-3.563,-3.4476,-3.1457,-2.0141,NONE,1211
1770475761.9888735,49:22.0,-16.669,4.603,-3.309,-3.7847,-3.9724,-1.1191,NONE,1212
1770475761.9958296,49:22.0,-15.303,5.572,-3.106,-4.0529,-4.3657,-1.9601,NONE,1213
1770475762.0028994,49:22.0,-12.339,4.4,-3.496,-4.3596,-4.3657,-1.0237,NONE,1214
1770475762.009831,49:22.0,-9.877,3.433,-4.689,-4.3657,-4.3657,-1.4081,NONE,1215
1770475762.017515,49:22.0,-9.197,3,-4.204,-4.3657,-4.3657,-1.1358,NONE,1216
1770475762.0255597,49:22.0,-10.422,4.278,-4.01,-4.3657,-4.3657,-1.4136,NONE,1217
1770475762.0320086,49:22.0,-9.9,4.354,-3.835,-4.3657,-4.3657,-1.5683,NONE,1218
1770475762.0389647,49:22.0,-9.448,4.421,-3.362,-4.3657,-4.3657,-1.8511,NONE,1219
1770475762.0458355,49:22.0,-7.209,3.431,-4.182,-4.3657,-4.3657,-2.0374,NONE,1220
1770475762.0528255,49:22.1,-4.938,-0.273,-4.087,-4.3657,-4.3657,-1.9953,NONE,1221
1770475762.0599277,49:22.1,-3.613,-3.828,-3.031,-4.3657,-4.3657,-2.5077,NONE,1222
1770475762.0669196,49:22.1,-4.177,-2.993,-1.581,-4.3657,-4.3657,-2.6143,NONE,1223
1770475762.073814,49:22.1,-4.534,-0.849,0.177,-4.3657,-4.3657,-2.5743,NONE,1224
1770475762.0816095,49:22.1,-3.314,0.127,0.706,-4.3657,-4.3657,-2.3557,NONE,1225
1770475762.088251,49:22.1,-1.909,-1.876,-0.077,-4.3657,-4.3657,-2.0252,NONE,1226
1770475762.0950427,49:22.1,-3.189,-2.749,0.744,-4.3657,-4.3657,-2.246,NONE,1227
1770475762.1019511,49:22.1,-4.192,-2.608,0.536,-4.3657,-4.3657,-2.2866,NONE,1228
1770475762.109061,49:22.1,-5.008,-1.483,0.529,-4.3657,-4.3657,-2.5576,NONE,1229
1770475762.1157596,49:22.1,-2.239,-0.019,0.522,-4.3657,-4.3657,-2.3771,NONE,1230
1770475762.1227324,49:22.1,2.498,0.22,0.127,-4.3657,-4.3657,-2.2214,NONE,1231
1770475762.1297703,49:22.1,5.417,-0.077,0.206,-4.3657,-4.3657,-1.9901,NONE,1232
1770475762.1367457,49:22.1,4.974,-0.397,0.589,-4.3657,-4.3657,-1.9414,NONE,1233
1770475762.145043,49:22.1,2.639,-2.168,1.103,-4.3657,-4.0665,-1.4669,NONE,1234
1770475762.1514988,49:22.2,0.935,-5.23,1.364,-4.3657,-3.7838,-1.5005,NONE,1235
1770475762.1579049,49:22.2,0.572,-6.639,1.634,-4.3657,-3.5743,-1.6393,NONE,1236
1770475762.1648197,49:22.2,0.727,-8.441,1.971,-4.3657,-3.355,-1.5954,NONE,1237
1770475762.1717591,49:22.2,-0.151,-9.479,2.5,-4.3657,-3.0166,-1.5937,NONE,1238
1770475762.1787415,49:22.2,-0.395,-8.726,3.278,-4.3657,-3.0144,-1.6812,NONE,1239
1770475762.185847,49:22.2,0.971,-7.424,3.441,-4.3657,-2.817,-1.5144,NONE,1240
1770475762.192721,49:22.2,1.785,-7.74,3.347,-4.3657,-2.4055,-1.2757,NONE,1241
1770475762,49:22.2,2.149,-8.757,3.118,-4.3657,-1.8858,-1.1636,NONE,1242
1770475762.207602,49:22.2,1.187,-9.195,2.744,-4.3657,-1.4678,-1.2584,NONE,1243
1770475762.2148554,49:22.2,-0.22,-10.209,2.323,-4.3657,-0.9659,-1.2107,NONE,1244
1770475762.221869,49:22.2,-3.11,-10.738,2.354,-4.3657,-0.8383,-1.3795,NONE,1245
1770475762.228867,49:22.2,-5.611,-12.877,2.596,-4.3657,-1.1582,-1.4661,NONE,1246
1770475762.235947,49:22.2,-6.465,-14.846,2.996,-3.846,-1.6771,-1.6667,NONE,1247
1770475762.2428484,49:22.2,-6.493,-13.839,5.029,-3.5269,-2.1787,-2.0395,NONE,1248
1770475762.249945,49:22.2,-3.598,-15.372,3.874,-3.1709,-2.3226,-1.5183,NONE,1249
1770475762.256831,49:22.3,-2.914,-15.423,5.209,-2.8165,-2.483,-1.4031,NONE,1250
1770475762.2640715,49:22.3,-0.402,-15.777,4.713,-2.4564,-2.4295,-1.3518,NONE,1251
1770475762.270858,49:22.3,2.701,-17.966,4.917,-1.8796,-1.9438,-0.2883,NONE,1252
1770475762.2778363,49:22.3,2.847,-17.253,4.864,-1.3161,-1.2231,-0.2204,NONE,1253
1770475762.285007,49:22.3,1.775,-14.915,4.733,-0.9818,-0.8303,0.1025,NONE,1254
1770475762.2918806,49:22.3,1.493,-13.982,4.359,-0.805,-0.7013,0.3524,NONE,1255
1770475762.2986705,49:22.3,2.338,-12.729,4.163,-0.7115,-0.5869,0.3313,NONE,1256
1770475762.3056326,49:22.3,3.933,-12.489,4.101,-0.7188,-0.3047,0.2954,NONE,1257
1770475762.3126516,49:22.3,4.488,-13.709,3.752,-0.5975,0.2033,0.4868,NONE,1258
1770475762.3195915,49:22.3,2.483,-15.217,4.027,-0.2775,0.6137,0.5147,NONE,1259
1770475762.3264976,49:22.3,0.084,-15.982,4.953,0.1306,0.502,0.2013,NONE,1260
1770475762.3336012,49:22.3,-0.378,-16.961,5.474,0.634,0.1134,0.0067,NONE,1261
1770475762.3408127,49:22.3,1.522,-17.734,6.072,1.2197,-0.112,-0.1088,NONE,1262
1770475762.3478813,49:22.3,3.835,-17.896,6.654,1.7561,0.0516,-0.1518,NONE,1263
1770475762.3546286,49:22.4,5.455,-18.093,7.242,2.2467,0.4678,-0.0349,NONE,1264
1770475762.361536,49:22.4,6.568,-19.066,7.522,2.7641,0.9509,0.2895,NONE,1265
1770475762.3683863,49:22.4,6.972,-19.478,7.302,3.3409,1.4136,0.326,NONE,1266
1770475762.3757522,49:22.4,7.501,-18.219,7.348,3.8453,1.8302,0.5437,NONE,1267
1770475762.3825095,49:22.4,7.922,-15.903,5.807,3.9576,2.461,0.4457,NONE,1268
1770475762.3897443,49:22.4,6.733,-14.348,4.771,3.8946,2.9889,0.848,NONE,1269
1770475762.3965461,49:22.4,5.618,-14.803,3.364,4.0031,3.4491,0.9677,NONE,1270
1770475762.4038033,49:22.4,4.73,-15.569,1.034,4.3656,3.8649,1.0007,NONE,1271
1770475762.4105008,49:22.4,2.948,-12.944,0.134,4.3656,4.2408,0.6145,NONE,1272
1770475762.4176042,49:22.4,0.586,-8.75,-0.488,4.3656,4.3495,0.7863,NONE,1273
1770475762.4249501,49:22.4,-0.952,-7.419,-1.144,4.3656,4.3187,1.0804,NONE,1274
1770475762.4315176,49:22.4,-2.617,-7.489,-0.713,4.3656,4.2467,1.1321,NONE,1275
1770475762.4384665,49:22.4,-2.811,-8.025,-0.471,4.3656,4.0601,1.6318,NONE,1276
1770475762.4455037,49:22.4,-2.701,-6.62,0.785,4.2533,4.0554,1.4739,NONE,1277
1770475762.452686,49:22.5,-2.125,-6.436,1.455,4.1206,4.0512,1.819,NONE,1278
1770475762.4596994,49:22.5,-0.88,-6.867,1.79,4.0995,4.2322,1.6653,NONE,1279
1770475762.4670784,49:22.5,-0.481,-7.958,2.067,4.2802,4.3656,1.5115,NONE,1280
1770475762.4739182,49:22.5,-1.861,-9.027,3.173,4.3656,4.3656,0.893,NONE,1281
1770475762.4809554,49:22.5,-1.309,-8.233,3.118,4.3656,4.3656,0.6611,NONE,1282
1770475762.489003,49:22.5,-0.498,-7.178,2.986,4.3656,4.3656,0.6187,NONE,1283
1770475762.4950244,49:22.5,-1.651,-5.646,2.5,4.3656,4.3595,1.2227,NONE,1284
1770475762.5015318,49:22.5,-3.575,-6.991,1.553,4.3656,4.3656,0.8332,NONE,1285
1770475762.5090005,49:22.5,-5.967,-5.821,1.926,4.3656,4.3656,1.4801,NONE,1286
1770475762.5154805,49:22.5,-7.214,-7.817,1.029,4.3656,4.067,0.9102,NONE,1287
1770475762.522604,49:22.5,-5.898,-5.977,1.029,4.3656,3.6477,0.8344,NONE,1288
1770475762.5297475,49:22.5,-5.69,-3.78,1.962,4.3656,3.7939,-0.7939,NONE,1289
1770475762.5364723,49:22.5,-3.914,-3.996,0.01,4.3656,3.765,0.7489,NONE,1290
1770475762.5435655,49:22.5,-4.756,-6.307,1.019,4.3656,4.3656,-0.1796,NONE,1291
1770475762.5507836,49:22.6,-6.979,-4.823,1.189,4.3656,4.3656,-0.3127,NONE,1292
1770475762.5574005,49:22.6,-7.345,-2.433,0.971,4.3656,4.2164,0.1641,NONE,1293
1770475762.5646207,49:22.6,-6.228,-1.177,2.701,4.3656,4.0405,-0.528,NONE,1294
1770475762.5715876,49:22.6,-5.319,-2.153,1.622,4.3656,3.8702,-0.0825,NONE,1295
1770475762.5784957,49:22.6,-4.225,-2.919,0.555,4.3656,4.1194,0.0043,NONE,1296
1770475762.585913,49:22.6,-4.622,-1.704,0.656,4.3656,4.3656,-0.0683,NONE,1297
1770475762.5928502,49:22.6,-6.982,-1.459,0.596,4.3656,4.3656,0.5486,NONE,1298
1770475762.5995574,49:22.6,-7.711,-2.141,0.153,4.3656,4.3656,0.552,NONE,1299
1770475762.6066957,49:22.6,-7.649,-1.385,-0.648,4.3656,4.3656,0.8981,NONE,1300
1770475762.6137407,49:22.6,-8.537,-1.416,-0.77,4.2794,4.3656,1.1425,NONE,1301
1770475762.620946,49:22.6,-9.508,-0.536,-1.11,4.1815,4.3656,0.4706,NONE,1302
1770475762.628293,49:22.6,-9.434,-0.144,-1.381,4.0197,4.3656,1.0067,NONE,1303
1770475762.634727,49:22.6,-10.475,1.096,-1.589,3.8034,4.3656,0.7031,NONE,1304
1770475762.6416965,49:22.6,-12.14,2.417,-1.701,3.3933,4.3656,0.706,NONE,1305
1770475762.6486702,49:22.6,-11.843,2.673,-1.809,2.9809,4.3656,0.5037,NONE,1306
1770475762.655814,49:22.7,-10.451,1.916,-1.366,2.6137,4.3543,0.6947,NONE,1307
1770475762.6627054,49:22.7,-10.669,1.39,-0.33,2.3935,4.3656,0.6712,NONE,1308
1770475762.6700613,49:22.7,-11.547,0.878,0.033,2.1811,4.2867,0.6178,NONE,1309
1770475762.6766615,49:22.7,-12.377,0.51,0.321,2.0466,4.066,0.644,NONE,1310
1770475762.683515,49:22.7,-13.346,0.56,0.445,1.9,3.8229,0.5151,NONE,1311
1770475762.6905901,49:22.7,-14.932,1.084,0.605,1.6546,3.4351,0.589,NONE,1312
1770475762.697597,49:22.7,-16.353,0.95,1.014,1.4033,2.8934,0.8318,NONE,1313
1770475762.7046666,49:22.7,-15.822,-0.62,0.636,1.3676,2.2403,0.8978,NONE,1314
1770475762.7117252,49:22.7,-14.178,-0.435,0.146,1.4373,1.8999,0.4259,NONE,1315
1770475762.7187848,49:22.7,-13.343,0.957,-0.081,1.4889,1.863,0.0545,NONE,1316
1770475762.7258956,49:22.7,-13.595,3.409,-0.115,1.2052,1.7777,-0.1267,NONE,1317
1770475762.7327838,49:22.7,-13.719,4.4,0.242,0.6887,1.6,0.0778,NONE,1318
1770475762.739726,49:22.7,-13.695,4.024,-0.77,0.2463,1.3976,0.2802,NONE,1319
1770475762.7467494,49:22.7,-13.879,3.22,-0.49,-0.0917,1.1698,0.4515,NONE,1320
1770475762.7536922,49:22.8,-13.901,2.723,-0.548,-0.3138,1.0563,0.2483,NONE,1321
1770475762.7607267,49:22.8,-14.32,3.383,-0.498,-0.5617,0.8925,0.3661,NONE,1322
1770475762.767703,49:22.8,-14.516,3.883,-0.299,-0.928,0.6599,0.6678,NONE,1323
1770475762.774531,49:22.8,-14.671,3.519,0.124,-1.2879,0.4636,0.9698,NONE,1324
1770475762.7815826,49:22.8,-14.748,3.189,0.263,-1.629,0.2378,1.2201,NONE,1325
1770475762.788905,49:22.8,-14.592,2.51,0.562,-1.9962,-0.0109,1.2677,NONE,1326
1770475762.7957888,49:22.8,-14.198,2.393,0.871,-2.0993,-0.3122,1.1367,NONE,1327
1770475762.8027394,49:22.8,-13.073,1.675,0.995,-2.4766,-0.494,0.8775,NONE,1328
1770475762.8098724,49:22.8,-12.382,1.823,0.775,-2.5293,-0.6238,0.7799,NONE,1329
1770475762.8166807,49:22.8,-12.757,2.677,1.625,-2.824,-0.7268,0.1712,NONE,1330
1770475762.8237185,49:22.8,-13.525,2.888,0.947,-3.2215,-1.1658,0.2646,NONE,1331
1770475762.8309736,49:22.8,-13.252,2.201,0.423,-3.4787,-1.6168,0.0293,NONE,1332
1770475762.837747,49:22.8,-12.774,2.395,0.136,-3.7345,-1.9397,-0.1595,NONE,1333
1770475762.8448842,49:22.8,-13.212,2.957,-0.469,-4.0588,-2.2003,-0.3304,NONE,1334
1770475762.8520908,49:22.9,-15.353,3.335,-1.189,-4.3657,-2.6746,-0.2377,NONE,1335
1770475762.8590364,49:22.9,-17.145,2.706,-1.211,-4.3657,-3.6636,-0.346,NONE,1336
1770475762.8660293,49:22.9,-14.461,2.321,-1.991,-4.3657,-4.3657,-0.217,NONE,1337
1770475762.8730204,49:22.9,-10.8,2.565,-3.067,-4.3657,-4.3657,-0.9531,NONE,1338
1770475762.8798294,49:22.9,-8.752,3.764,-5.646,-4.3657,-4.3657,-1.0694,NONE,1339
1770475762.8867853,49:22.9,-11.891,6.309,-6.072,-4.3657,-4.0384,-1.106,NONE,1340
1770475762.894258,49:22.9,-15.884,7.168,-6.505,-4.3657,-4.3657,-0.888,NONE,1341
1770475762.901703,49:22.9,-16.023,4.555,-7.317,-4.3657,-4.3657,-0.98,NONE,1342
1770475762.9079225,49:22.9,-15.463,1.053,-7.474,-4.3657,-4.3657,-1.1154,NONE,1343
1770475762.9148984,49:22.9,-13.406,-1.847,-7.455,-4.3657,-4.3657,-1.5555,NONE,1344
1770475762.9221528,49:22.9,-10.362,-1.491,-5.969,-4.3657,-4.3657,-2.4173,NONE,1345
1770475762.9289238,49:22.9,-9.338,-0.981,-4.919,-4.3657,-4.3657,-2.3419,NONE,1346
1770475762.9361994,49:22.9,-6.86,-2.924,-3.96,-4.3657,-4.3657,-2.0217,NONE,1347
1770475763,49:22.9,-4.058,-2.629,-2.893,-4.3657,-4.3657,-2.5538,NONE,1348
1770475762.9498978,49:22.9,-1.443,-1.125,-2.196,-4.3657,-4.3657,-2.3097,NONE,1349
1770475762.9568977,49:23.0,1.529,-1.225,-2.074,-4.3657,-4.3657,-1.9476,NONE,1350
1770475762.963882,49:23.0,3.577,-1.316,-1.302,-4.3657,-4.3657,-1.8295,NONE,1351
1770475762.9706209,49:23.0,3.754,0.108,0.457,-4.3657,-4.3657,-1.9408,NONE,1352
1770475762.9774597,49:23.0,4.048,2.101,0.912,-4.3657,-4.3657,-1.6979,NONE,1353
1770475762.9844558,49:23.0,5.467,0.201,0.723,-4.3657,-4.2767,-0.8278,NONE,1354
1770475762.9923809,49:23.0,5.599,-4.163,0.852,-4.3657,-3.1083,-0.7272,NONE,1355
1770475762.9998841,49:23.0,2.352,-11.106,1.206,-4.3657,-2.2908,-0.7565,NONE,1356
1770475763.006821,49:23.0,-0.703,-12.336,1.83,-4.3657,-1.7822,-1.295,NONE,1357
1770475763.0138521,49:23.0,-4.323,-9.984,2.893,-4.3657,-1.7976,-1.5036,NONE,1358
1770475763.0208802,49:23.0,-5.496,-7.324,3.732,-4.3657,-2.3208,-1.2882,NONE,1359
1770475763.0278342,49:23.0,-4.455,-6.994,4.18,-4.3657,-2.6901,-1.1686,NONE,1360
1770475763.0348268,49:23.0,-1.763,-7.429,4.106,-4.3657,-2.6152,-0.9984,NONE,1361
1770475763.0418293,49:23.0,0.16,-8.187,4.331,-4.3657,-2.0444,-1.0607,NONE,1362
1770475763.048633,49:23.0,0.254,-7.833,4.579,-4.3657,-1.442,-1.0364,NONE,1363
1770475763.0558069,49:23.1,-0.823,-9.13,4.331,-4.2422,-0.9908,-0.7281,NONE,1364
1770475763.0629816,49:23.1,-2.393,-10.331,4.486,-3.863,-0.7079,-0.9317,NONE,1365
1770475763.069897,49:23.1,-3.376,-10.109,4.668,-3.5795,-0.8312,-1.0071,NONE,1366
1770475763.076806,49:23.1,-3.627,-11.305,4.072,-3.2646,-0.7825,-0.9618,NONE,1367
1770475763.0836918,49:23.1,-5.917,-11.499,4.833,-2.9739,-0.8624,-1.2101,NONE,1368
1770475763.0908442,49:23.1,-6.642,-12.614,3.73,-2.6513,-1.2673,-1.226,NONE,1369
1770475763.0978785,49:23.1,-6.962,-13.3,3.799,-2.2271,-1.5677,-1.5304,NONE,1370
1770475763.1050148,49:23.1,-6.304,-12.662,3.95,-1.9307,-1.9283,-1.5464,NONE,1371
1770475763.1118777,49:23.1,-4.177,-13.377,4.137,-1.7515,-2.124,-1.3732,NONE,1372
1770475763.1190748,49:23.1,-2.153,-14.985,4.369,-1.4769,-1.9205,-1.1543,NONE,1373
1770475763.1259804,49:23.1,-1.842,-15.561,5.156,-1.156,-1.6836,-0.9453,NONE,1374
1770475763.1330693,49:23.1,-0.813,-16.597,5.233,-0.7428,-1.4749,-0.5137,NONE,1375
1770475763.1398616,49:23.1,-0.79,-16.65,6.415,-0.3725,-1.3632,-0.3136,NONE,1376
1770475763.1467352,49:23.1,2.125,-18.2,6.166,0.1655,-1.0696,-0.0349,NONE,1377
1770475763.1537657,49:23.2,4.094,-18.193,6.721,0.7477,-0.3303,-0.0352,NONE,1378
1770475763.160447,49:23.2,4.39,-16.224,7.211,1.1092,0.2354,0.3079,NONE,1379
1770475763.1677403,49:23.2,5.012,-16.064,6.596,1.3909,0.8801,0.6952,NONE,1380
1770475763.1746037,49:23.2,3.632,-16.047,6.3,1.7376,1.4698,0.7718,NONE,1381
1770475763.1817276,49:23.2,1.931,-15.176,6.441,2.0463,1.5323,0.6563,NONE,1382
1770475763.1883843,49:23.2,2.572,-13.997,6.005,2.2395,1.4643,0.4662,NONE,1383
1770475763.1955347,49:23.2,4.369,-13.808,5.422,2.3755,1.7611,0.4702,NONE,1384
1770475763.202562,49:23.2,4.697,-14.162,5.326,2.5261,2.2711,0.2924,NONE,1385
1770475763.209678,49:23.2,3.953,-13.922,5.546,2.6829,2.6059,0.1144,NONE,1386
1770475763.2163663,49:23.2,3.909,-14.109,5.149,2.8858,2.83,0.1158,NONE,1387
1770475763.2235513,49:23.2,4.467,-14.236,4.431,3.1601,3.2655,0.2265,NONE,1388
1770475763.2305484,49:23.2,3.383,-12.733,3.814,3.3028,3.7422,0.3922,NONE,1389
1770475763.2374868,49:23.2,1.914,-11.913,3.216,3.4077,3.9218,0.8158,NONE,1390
1770475763.2445273,49:23.2,1.579,-10.929,2.541,3.439,4.2152,0.9334,NONE,1391
1770475763.2515538,49:23.3,1.206,-10.403,2.11,3.4404,4.3656,1.4437,NONE,1392
1770475763.2588792,49:23.3,0.933,-10.587,1.593,3.4463,4.3656,1.5444,NONE,1393
1770475763.2658412,49:23.3,0.318,-11.135,1.282,3.6083,4.3656,1.6924,NONE,1394
1770475763.2730677,49:23.3,-0.744,-10.269,1.007,3.8373,4.3656,1.7401,NONE,1395
1770475763.279539,49:23.3,-2.766,-7.733,0.825,3.8549,4.3656,1.9227,NONE,1396
1770475763.2864485,49:23.3,-4.187,-5.764,0.778,3.6743,4.3656,2.2552,NONE,1397
1770475763.293458,49:23.3,-4.398,-5.977,0.519,3.4936,4.3656,2.5446,NONE,1398
1770475763.3004518,49:23.3,4.309,-6.821,-0.182,3.5044,4.3656,2.4083,NONE,1399
1770475763.3074768,49:23.3,-4.864,-6.259,-1.158,3.5665,4.3656,2.3695,NONE,1400
1770475763.3145216,49:23.3,-7.594,-5.168,-0.45,3.5046,4.3656,2.3852,NONE,1401
1770475763.3216052,49:23.3,-8.874,-4.807,0.112,3.5134,4.3656,2.2106,NONE,1402
1770475763.3287153,49:23.3,-7.01,-4.113,-1.756,3.5234,4.014,2.0951,NONE,1403
1770475763.3358603,49:23.3,-4.96,-3.058,-4.199,3.4849,4.3186,2.1986,NONE,1404
1770475763.3426087,49:23.3,-7.223,-2.125,-5.414,3.5178,4.3656,3.5743,NONE,1405
1770475763.349805,49:23.3,-11.594,-0.574,-2.589,3.4781,4.3656,2.0763,NONE,1406
1770475763.356559,49:23.4,-12.848,1.648,-2.424,3.2479,3.5597,3.0562,NONE,1407
1770475763.3635561,49:23.4,-11.819,0.725,-2.369,3.074,2.9759,3.2062,NONE,1408
1770475763.3705833,49:23.4,-11.001,0.914,-1.794,3.0931,2.7003,3.0634,NONE,1409
1770475763.3775973,49:23.4,-10.647,2.079,-1.694,2.9793,2.5177,3.2333,NONE,1410
1770475763.384602,49:23.4,-11.748,2.723,-1.347,2.6967,2.3442,3.105,NONE,1411
1770475763.3915346,49:23.4,-13.303,2.424,-0.88,2.4027,1.8967,3.0198,NONE,1412
1770475763.3987274,49:23.4,-14.418,1.608,-1.184,2.1481,1.4249,2.5142,NONE,1413
1770475763.4057655,49:23.4,-15.001,0.823,-0.668,1.9466,0.8942,1.952,NONE,1414
1770475763.4127238,49:23.4,-15.389,0.88,1.337,1.7016,0.2248,1.7918,NONE,1415
1770475763.4195454,49:23.4,-13.889,0.871,1.321,1.4645,-0.1379,1.2589,NONE,1416
1770475763.426705,49:23.4,-11.996,1.871,1.902,1.2033,-0.2835,2.0626,NONE,1417
1770475763.4334998,49:23.4,-10.276,2.78,2.007,0.7364,-0.081,2.5752,NONE,1418
1770475763.4402747,49:23.4,-9.377,2.754,1.749,0.2927,0.3916,2.4705,NONE,1419
1770475763.4476764,49:23.4,-10.702,1.479,1.907,0.1196,0.5556,2.3954,NONE,1420
1770475763.4546254,49:23.5,-12.673,0.16,1.589,0.3336,0.1083,2.6601,NONE,1421
1770475763.4630728,49:23.5,-13.671,1.017,2.761,0.4113,-0.8695,1.3735,NONE,1422
1770475763.4696105,49:23.5,-10.281,1.297,3.519,0.4005,-1.107,0.8023,NONE,1423
1770475763.4764497,49:23.5,-8.4,1.675,4.467,0.2289,-0.9274,1.0741,NONE,1424
1770475763.4834254,49:23.5,-7.214,0.988,4.788,0.0633,-0.3376,0.6363,NONE,1425
1770475763.4902573,49:23.5,-7.795,0.055,5.024,0.0512,0.1423,0.8523,NONE,1426
1770475763.4974532,49:23.5,-9.03,-0.648,5.335,0.1728,0.3016,0.8761,NONE,1427
1770475763.5044837,49:23.5,-9.36,-0.706,5.369,0.3525,0.2337,1.0909,NONE,1428
1770475763.5114448,49:23.5,-9.147,-0.732,5.522,0.5419,0.1358,1.6715,NONE,1429
1770475763.5188293,49:23.5,-8.865,-0.639,5.745,0.6897,0.1376,1.4889,NONE,1430
1770475763.5255969,49:23.5,-8.13,-0.366,5.347,0.8003,0.2172,1.1006,NONE,1431
1770475763.5324252,49:23.5,-8.034,0.624,5.548,0.8011,0.3621,0.8017,NONE,1432
1770475763.5396461,49:23.5,-8.486,1.823,5.108,0.5761,0.4711,0.7416,NONE,1433
1770475763.5464983,49:23.5,-9.161,2.113,5.201,0.2497,0.4582,0.9391,NONE,1434
1770475763.5534341,49:23.6,-9.51,1.117,4.833,0.0417,0.39,1.1398,NONE,1435
1770475763.5604115,49:23.6,-9.53,0.397,4.654,0.0063,0.3277,0.9125,NONE,1436
1770475763.5674317,49:23.6,-9.188,0.964,4.472,-0.0218,0.288,0.7472,NONE,1437
1770475763.5744004,49:23.6,-8.608,1.909,4.881,-0.1629,0.3119,0.8116,NONE,1438
1770475763.5815122,49:23.6,-8.135,2.292,4.871,-0.3465,0.3773,1.0207,NONE,1439
1770475763.588566,49:23.6,-7.795,1.799,4.311,-0.478,0.5308,1.0168,NONE,1440
1770475763.5955157,49:23.6,-7.718,1.223,4.51,-0.4872,0.7249,0.8186,NONE,1441
1770475763.6023712,49:23.6,-7.989,1.218,4.323,-0.4946,0.955,0.5245,NONE,1442
1770475763.6093884,49:23.6,-8.927,1.046,4.089,-0.48,1.077,0.3628,NONE,1443
1770475763.616534,49:23.6,-9.838,0.737,3.905,-0.4154,0.9903,0.4819,NONE,1444
1770475763.6235666,49:23.6,-10.051,0.845,3.663,-0.3539,0.8777,0.2666,NONE,1445
1770475763.630692,49:23.6,-9.613,1.254,3.498,-0.4327,0.9418,-0.3159,NONE,1446
1770475763.6375694,49:23.6,-9.666,1.302,3.362,-0.4774,0.9657,0.1576,NONE,1447
1770475763.6446633,49:23.6,-10.243,1.031,2.847,-0.5207,0.921,0.0446,NONE,1448
1770475763.6518931,49:23.7,-10.312,0.95,2.682,-0.5929,0.8783,-0.2817,NONE,1449
1770475763.6587248,49:23.7,-10.501,0.962,2.405,-0.6554,0.7969,-0.1581,NONE,1450
1770475763.6656423,49:23.7,-10.951,0.376,2.192,-0.7224,0.7057,-0.0294,NONE,1451
1770475763.6726785,49:23.7,-11.704,-0.1,2.522,-0.7414,0.5633,-0.2249,NONE,1452
1770475763.6798198,49:23.7,-11.886,-0.287,2.711,-0.7017,0.1865,-0.2289,NONE,1453
1770475763.6866102,49:23.7,-11.145,0.026,2.957,-0.6877,-0.154,-0.1883,NONE,1454
1770475763.6937962,49:23.7,-9.499,-0.093,2.804,-0.6923,-0.2501,-0.4321,NONE,1455
1770475763.7007887,49:23.7,-8.187,-0.617,2.732,-0.6282,-0.069,-0.3596,NONE,1456
1770475763.7078037,49:23.7,-8.221,-0.737,2.828,-0.5566,0.209,-0.458,NONE,1457
1770475763.7154524,49:23.7,-9.092,-0.703,3.35,-0.5291,0.379,-0.4479,NONE,1458
1770475763.723286,49:23.7,-10.025,-0.909,3.464,-0.5269,0.3287,-0.3196,NONE,1459
1770475763.729753,49:23.7,-10.051,-1.251,3.268,-0.4863,0.2281,-0.2918,NONE,1460
1770475763.7368016,49:23.7,-9.587,-1.306,2.845,-0.4129,0.1745,-0.3728,NONE,1461
1770475763.7436166,49:23.7,8.929,-1.4,1.931,-0.3497,0.2445,-0.174,NONE,1462
1770475763.7505536,49:23.7,-9.037,-1.163,1.665,-0.3291,0.4664,0.0052,NONE,1463
1770475763.7576182,49:23.8,-10.128,-0.785,1.854,-0.3888,0.6428,0.0755,NONE,1464
1770475763.764969,49:23.8,-11.434,-0.952,2.158,-0.439,0.5133,0.3655,NONE,1465
1770475763.771681,49:23.8,-11.889,-1.591,2.321,-0.3869,0.1843,0.485,NONE,1466
1770475763.778772,49:23.8,11.219,-2.067,2.266,-0.2518,-0.0593,0.3403,NONE,1467
1770475763.7869787,49:23.8,-10.544,-2.041,2.405,-0.0925,-0.1843,0.2124,NONE,1468
1770475763.7937856,49:23.8,-10.197,-1.713,2.728,-0.0027,-0.2646,0.0845,NONE,1469
1770475763.8006146,49:23.8,-9.518,-1.306,3.003,0.0378,-0.36,0.0389,NONE,1470
1770475763.8074765,49:23.8,-8.625,-1.175,3.328,0.0552,-0.386,0.0063,NONE,1471
1770475763.8145237,49:23.8,-7.695,-1.129,3.534,0.0481,-0.2714,-0.0801,NONE,1472
1770475763.8216968,49:23.8,-7.242,-1.371,3.699,0.0553,-0.1151,-0.0472,NONE,1473
1770475763.8286748,49:23.8,-7.209,-1.443,3.371,0.0586,0.0887,-0.0256,NONE,1474
1770475763.8356917,49:23.8,-7.455,-1.586,3.153,0.0935,0.3357,0.0067,NONE,1475
1770475763.8426752,49:23.8,-8.498,-0.828,3.268,0.0336,0.5283,-0.0225,NONE,1476
1770475763.8496768,49:23.8,-9.314,-0.811,3.395,-0.0666,0.5401,0.393,NONE,1477
1770475763.8565323,49:23.9,-9.879,-1.254,3.232,-0.1256,0.5235,0.643,NONE,1478
1770475763.8637168,49:23.9,-10.379,-1.364,2.931,-0.1088,0.4818,0.7488,NONE,1479
1770475763.8707063,49:23.9,-10.585,-1.029,2.701,-0.0893,0.3535,0.8468,NONE,1480
1770475763.8777945,49:23.9,-10.305,-0.646,2.345,-0.1126,0.2619,0.9229,NONE,1481
1770475763.884581,49:23.9,-9.853,-0.474,2.491,-0.1522,0.2745,0.9373,NONE,1482
1770475763.8923178,49:23.9,-10.061,-0.847,2.649,-0.148,0.2938,1.0245,NONE,1483
1770475763.8990388,49:23.9,-10.391,-1.536,2.967,-0.0276,0.2177,0.902,NONE,1484
1770475763.9057922,49:23.9,-10.503,-1.976,3.079,0.1693,0.0985,0.6635,NONE,1485
1770475764,49:23.9,-10.24,-2.046,3.34,0.4419,-0.0601,0.3529,NONE,1486
1770475763.9218676,49:23.9,-9.52,-1.376,3.237,0.6339,-0.1371,0.1705,NONE,1487
1770475763.9287112,49:23.9,-8.884,-0.629,3.362,0.6965,-0.0807,0.2639,NONE,1488
1770475763.935602,49:23.9,-8.637,-0.081,3.393,0.6623,0.0663,0.4133,NONE,1489
1770475763.942452,49:23.9,-8.958,0.093,3.651,0.591,0.2174,0.383,NONE,1490
1770475763.9493952,49:23.9,-9.42,-0.089,3.852,0.565,0.2557,0.4918,NONE,1491
1770475763.9563878,49:24.0,-9.618,-0.309,4.06,0.6142,0.2467,0.5801,NONE,1492
1770475763.9634159,49:24.0,-9.549,-0.179,4.259,0.6562,0.2558,0.5822,NONE,1493
1770475763.9706004,49:24.0,-9.374,0.16,3.871,0.65,0.296,0.8054,NONE,1494
1770475763.9776094,49:24.0,-9.494,0.316,3.216,0.5849,0.3592,1.0477,NONE,1495
1770475764,49:24.0,-10.008,0.285,2.866,0.5371,0.3583,1.1971,NONE,1496
1770475763.991421,49:24.0,-10.07,0.077,2.663,0.5845,0.2805,1.3154,NONE,1497
1770475763.9986665,49:24.0,-9.743,0.189,2.878,0.6499,0.197,1.2562,NONE,1498
1770475764,49:24.0,-8.946,0.572,2.792,0.7067,0.2249,1.2068,NONE,1499
1770475764.0124636,49:24.0,-8.582,0.746,2.993,0.7541,0.3733,1.276,NONE,1500
1770475764.0193877,49:24.0,-8.635,0.83,2.103,0.7581,0.4691,1.5002,NONE,1501
1770475764.0263906,49:24.0,-8.967,0.648,3.007,0.8639,0.439,1.394,NONE,1502
1770475764.0333505,49:24.0,-8.644,1.084,3.582,0.9264,0.5043,0.9663,NONE,1503
1770475764.0414796,49:24.0,-8.379,2.345,2.9,0.834,0.5882,0.9269,NONE,1504
1770475764.0484219,49:24.0,-8.374,1.787,2.62,0.7921,0.6765,0.8596,NONE,1505
1770475764.0553632,49:24.1,-8.455,1.223,2.342,0.8853,0.7497,0.4077,NONE,1506
1770475764.0625973,49:24.1,-8.508,1.78,1.955,0.9927,0.813,0.0245,NONE,1507
1770475764.069398,49:24.1,-8.68,2.57,1.689,0.9745,0.8938,-0.0861,NONE,1508
1770475764.0767388,49:24.1,-9.104,3.22,1.507,0.8322,0.9856,-0.0052,NONE,1509
1770475764.0833108,49:24.1,-9.929,3.206,1.196,0.6384,1.0048,0.1703,NONE,1510
1770475764.0904584,49:24.1,-11.02,2.895,0.785,0.5349,0.8599,0.1669,NONE,1511
1770475764.097636,49:24.1,-11.42,3.113,0.261,0.5261,0.5734,-0.069,NONE,1512
1770475764.1046247,49:24.1,-10.819,3.67,-0.002,0.5109,0.3629,-0.3144,NONE,1513
1770475764.1116498,49:24.1,-10.228,4.132,-0.278,0.3956,0.3058,-0.4346,NONE,1514
1770475764.1186316,49:24.1,-10.357,4.149,-0.505,0.2313,0.3159,-0.5195,NONE,1515
1770475764.1257064,49:24.1,-10.86,3.802,-0.321,0.0998,0.2344,-0.5887,NONE,1516
1770475764.1327167,49:24.1,-11.214,3.419,-0.17,0.0254,0.037,-0.6222,NONE,1517
1770475764.1397817,49:24.1,-10.982,3.163,-0.022,-0.012,-0.1982,-0.6781,NONE,1518
1770475764.146983,49:24.1,-10.109,3.163,-0.234,-0.0474,-0.3327,-0.6936,NONE,1519
1770475764.1538365,49:24.2,-9.302,3.481,-0.043,-0.1795,-0.2507,-0.5915,NONE,1520
1770475764.160786,49:24.2,-9.03,3.752,0.512,-0.4114,-0.0586,-0.4523,NONE,1521
1770475764.1676202,49:24.2,-9.341,3.328,0.89,-0.6266,0.0276,-0.1703,NONE,1522
1770475764.174618,49:24.2,-9.769,2.254,1.077,-0.7318,-0.0133,-0.158,NONE,1523
1770475764.1819608,49:24.2,-10.228,1.383,1.498,-0.7089,-0.1122,-0.5175,NONE,1524
1770475764,49:24.2,-9.726,1.663,1.125,-0.6845,-0.1681,-0.4739,NONE,1525
1770475764.1957343,49:24.2,-9.711,1.371,1.172,-0.6785,-0.1735,-0.5534,NONE,1526
1770475764.2025661,49:24.2,-9.972,1.201,1.316,-0.6684,-0.1636,-0.6334,NONE,1527
1770475764.2099352,49:24.2,-10.415,1.019,1.371,-0.6508,-0.2657,-0.6776,NONE,1528
1770475764.2172475,49:24.2,-10.604,0.837,1.591,-0.6335,-0.4158,-0.7492,NONE,1529
1770475764.2244906,49:24.2,-10.379,0.847,1.711,-0.6026,-0.5417,-0.7833,NONE,1530
1770475764.230966,49:24.2,-9.841,0.746,1.771,-0.5901,-0.6091,-0.795,NONE,1531
1770475764.2377915,49:24.2,-9.432,0.61,1.739,-0.5926,-0.5701,-0.8571,NONE,1532
1770475764.245406,49:24.2,-9.532,0.423,1.677,-0.5966,-0.5295,-0.8499,NONE,1533
1770475764.2515998,49:24.3,-9.661,0.213,1.838,-0.5925,-0.4952,-0.8083,NONE,1534
1770475764.2588513,49:24.3,-9.817,0.086,2.055,-0.5857,-0.5231,-0.7778,NONE,1535
1770475764.2657282,49:24.3,-9.769,-0.084,2.192,-0.5586,-0.5554,-0.6988,NONE,1536
1770475764.2729168,49:24.3,-9.546,-0.151,2.055,-0.5311,-0.557,-0.6374,NONE,1537
1770475764.2798252,49:24.3,-9.475,-0.311,2.027,-0.5164,-0.5199,-0.526,NONE,1538
1770475764.2868626,49:24.3,-9.604,-0.208,2.275,-0.5435,-0.4895,-0.5423,NONE,1539
1770475764.294099,49:24.3,-9.721,-0.141,2.397,-0.5857,-0.4656,-0.4076,NONE,1540
